timestamp_ms,gyro_x,gyro_y,gyro_z,accel_x,accel_y,accel_z,roll,pitch,yaw,adc0,adc1,adc2,adc3,adc4,Label
46648,-0.1783,0.0673,0.0130,0.3639,1.2157,-9.7352,1.8812,7.1017,172.6509,0.0000,0.0000,0.0000,0.0000,0.0000,nothing
46764,-0.1637,0.0642,0.0402,0.3166,1.2103,-9.7376,1.8779,7.0997,172.6537,0.0000,0.0000,0.0000,0.0000,0.0000,nothing
46880,-0.2059,0.0509,0.0019,0.3226,1.2313,-9.7088,1.8789,7.1120,172.6415,0.0000,0.0000,0.0000,0.0000,0.0000,nothing
46996,-0.2132,0.0964,-0.0042,0.3280,1.2157,-9.7603,1.8820,7.1104,172.6422,0.0000,0.0000,0.0000,0.0000,0.0000,nothing
47112,-0.2044,0.0932,-0.0294,0.3400,1.2121,-9.6849,1.8933,7.1123,172.6375,0.0000,0.0000,0.0000,0.0000,0.0000,nothing
47228,-0.1710,0.0555,0.0383,0.2921,1.1780,-9.7525,1.8743,7.0895,172.6645,0.0000,0.0000,0.0000,0.0000,0.0000,หนึ่ง
47344,-0.1719,0.0968,0.0225,0.6955,1.4803,-9.4072,2.0989,7.2684,172.4315,0.0000,0.0000,0.0000,0.0000,0.0000,หนึ่ง
47460,-0.4615,0.1253,0.0428,0.2203,1.1750,-9.8232,2.0158,7.2231,172.4980,0.0000,0.0000,0.0000,0.0000,0.0000,หนึ่ง
47576,-0.0409,-0.0038,0.0206,0.3412,0.9386,-9.7633,2.0135,7.0493,172.6659,0.0000,0.0000,0.0000,0.0000,0.0000,หนึ่ง
47692,-0.0819,0.0176,0.0063,0.2927,1.2540,-9.7088,1.9835,7.0800,172.6446,0.0000,0.0000,0.0000,0.0000,0.0000,หนึ่ง
47808,-0.2124,0.0538,-0.0322,0.2921,1.3492,-9.7346,1.9553,7.1610,172.5742,0.0000,0.0000,0.0000,0.0000,0.0000,หนึ่ง
47924,-0.2286,0.0897,0.0244,0.3352,1.2522,-9.7424,1.9552,7.1769,172.5588,0.0000,0.0000,0.0000,0.0000,0.0000,หนึ่ง
48040,-0.2380,0.0811,-0.0200,0.3208,1.2552,-9.7555,1.9465,7.1921,172.5465,0.0000,0.0000,0.0000,0.0000,0.0000,หนึ่ง
48156,-0.2289,0.0773,0.0642,0.3388,1.2235,-9.7442,1.9494,7.1881,172.5495,0.0000,0.0000,0.0000,0.0000,0.0000,หนึ่ง
48272,-0.2004,0.0559,-0.0109,0.2825,1.1936,-9.7513,1.9192,7.1668,172.5781,0.0000,0.0000,0.0000,0.0000,0.0000,หนึ่ง
48388,-0.2307,0.0669,-0.0274,0.4382,1.1762,-9.7382,1.9830,7.1381,172.5888,0.0000,0.0000,0.0000,0.0000,0.0000,หนึ่ง
48504,-0.1939,0.0721,-0.0003,0.2586,1.2450,-9.7549,1.9353,7.1515,172.5887,0.0000,0.0000,0.0000,0.0000,0.0000,หนึ่ง
48620,-0.2105,0.0639,0.0563,0.2430,1.2462,-9.7346,1.8836,7.1657,172.5884,0.0000,0.0000,0.0000,0.0000,0.0000,หนึ่ง
48736,-0.2243,0.0601,0.0348,0.3909,1.2109,-9.7172,1.9237,7.1589,172.5845,0.0000,0.0000,0.0000,0.0000,0.0000,หนึ่ง
48852,-0.2371,0.0729,0.1163,0.3567,1.2361,-9.7394,1.9395,7.1658,172.5737,0.0000,0.0000,0.0000,0.0000,0.0000,หนึ่ง
48968,-0.1839,0.0116,0.0395,0.3131,1.1367,-9.7579,1.9281,7.1133,172.6275,0.0000,0.0000,0.0000,0.0000,0.0000,หนึ่ง
49084,-0.2298,0.0410,-0.0108,0.3603,1.5922,-9.7064,1.9452,7.3334,172.4103,0.0000,0.0000,0.0000,0.0000,0.0000,break_time
49200,-0.3040,0.0893,0.0671,0.3567,1.3929,-9.7639,1.9579,7.4117,172.3312,0.0000,0.0000,0.0000,0.0000,0.0000,break_time
49316,-0.2818,0.0883,-0.0256,0.2580,1.1528,-9.7549,1.9126,7.3443,172.4081,0.0000,0.0000,0.0000,0.0000,0.0000,break_time
49432,-0.1947,0.0660,-0.0030,0.3172,1.1127,-9.7328,1.9068,7.2620,172.4893,0.0000,0.0000,0.0000,0.0000,0.0000,break_time
49548,-0.1070,-0.0184,-0.0196,0.1263,1.0481,-9.8471,1.7884,7.1425,172.6347,0.0000,0.0000,0.0000,0.0000,0.0000,break_time
49664,-0.3610,-0.0173,-0.0097,0.1484,1.3725,-9.8202,1.6946,7.2246,172.5773,0.0000,0.0000,0.0000,0.0000,0.0000,break_time
49780,-0.2386,0.0807,0.0076,0.1317,1.1840,-9.7226,1.6025,7.1965,172.6254,0.0000,0.0000,0.0000,0.0000,0.0000,break_time
49896,-0.1551,0.0589,-0.0023,0.3430,1.0906,-9.7244,1.6429,7.1167,172.6942,0.0000,0.0000,0.0000,0.0000,0.0000,break_time
50012,-0.1564,0.0459,-0.0117,0.3178,1.2103,-9.7567,1.6638,7.1118,172.6942,0.0000,0.0000,0.0000,0.0000,0.0000,break_time
50128,-0.1783,0.0690,0.0571,0.3292,1.2624,-9.7154,1.6898,7.1405,172.6603,0.0000,0.0000,0.0000,0.0000,0.0000,break_time
50244,-0.1971,0.0653,-0.0288,0.3071,1.2642,-9.7507,1.6997,7.1648,172.6343,0.0000,0.0000,0.0000,0.0000,0.0000,break_time
50360,-0.2064,0.0676,-0.0093,0.3430,1.1032,-9.7567,1.7298,7.0931,172.6970,0.0000,0.0000,0.0000,0.0000,0.0000,break_time
50476,-0.2219,0.0706,0.0106,0.3202,1.2343,-9.7214,1.7439,7.1069,172.6801,0.0000,0.0000,0.0000,0.0000,0.0000,break_time
50592,-0.2248,0.0567,-0.0112,0.3101,1.1953,-9.7334,1.7506,7.0960,172.6891,0.0000,0.0000,0.0000,0.0000,0.0000,break_time
50708,-0.1928,0.0271,-0.0404,0.3029,1.2031,-9.7100,1.7529,7.0924,172.6920,0.0000,0.0000,0.0000,0.0000,0.0000,break_time
50824,-0.1849,0.0566,0.0130,0.3807,1.2313,-9.7507,1.7995,7.1024,172.6710,0.0000,0.0000,0.0000,0.0000,0.0000,break_time
50940,-0.1778,0.0450,0.0139,0.2562,1.2480,-9.7322,1.7691,7.1226,172.6588,0.0000,0.0000,0.0000,0.0000,0.0000,break_time
51056,-0.2357,0.0519,-0.0061,0.3328,1.1768,-9.7334,1.7866,7.0994,172.6770,0.0000,0.0000,0.0000,0.0000,0.0000,break_time
51172,-0.2313,0.0541,0.0014,0.2694,1.1989,-9.7436,1.7651,7.0907,172.6908,0.0000,0.0000,0.0000,0.0000,0.0000,break_time
51288,-0.1700,0.0823,0.0209,0.3286,1.1756,-9.7346,1.7805,7.0698,172.7072,0.0000,0.0000,0.0000,0.0000,0.0000,break_time
51404,-0.2345,0.0537,-0.0312,0.3178,1.2025,-9.7669,1.7875,7.0644,172.7108,0.0000,0.0000,0.0000,0.0000,0.0000,break_time
51520,-0.2134,0.0791,0.0113,0.3059,1.2067,-9.7214,1.7876,7.0652,172.7099,0.0000,0.0000,0.0000,0.0000,0.0000,break_time
51636,-0.1797,0.0731,-0.0405,0.2825,1.2337,-9.7501,1.7735,7.0795,172.6995,0.0000,0.0000,0.0000,0.0000,0.0000,break_time
51752,-0.2012,0.0465,0.0086,0.3472,1.1936,-9.7310,1.7989,7.0704,172.7021,0.0000,0.0000,0.0000,0.0000,0.0000,break_time
51868,-0.2016,0.0863,0.0116,0.3184,1.2295,-9.7340,1.8049,7.0828,172.6885,0.0000,0.0000,0.0000,0.0000,0.0000,break_time
51984,-0.1964,0.0559,0.0162,0.2867,1.2450,-9.7316,1.7918,7.1033,172.6719,0.0000,0.0000,0.0000,0.0000,0.0000,break_time
52100,-0.1947,0.0544,0.0371,0.3388,1.2295,-9.7621,1.8099,7.1104,172.6606,0.0000,0.0000,0.0000,0.0000,0.0000,nothing
52216,-0.2251,0.0829,0.0244,0.3388,1.2115,-9.7370,1.8267,7.1082,172.6585,0.0000,0.0000,0.0000,0.0000,0.0000,nothing
52332,-0.1835,0.0494,0.0487,0.2741,1.1918,-9.7705,1.8035,7.0925,172.6795,0.0000,0.0000,0.0000,0.0000,0.0000,หนึ่ง
52448,-0.2983,-0.0115,0.0007,0.2334,1.1732,-9.7872,1.7586,7.0665,172.7158,0.0000,0.0000,0.0000,0.0000,0.0000,หนึ่ง
52564,-0.2502,0.0341,0.0136,0.1915,1.1750,-9.8142,1.6934,7.0424,172.7549,0.0000,0.0000,0.0000,0.0000,0.0000,หนึ่ง
52680,-0.1594,0.0744,-0.0260,0.3358,1.1313,-9.7208,1.7205,7.0017,172.7879,0.0000,0.0000,0.0000,0.0000,0.0000,หนึ่ง
52796,-0.1532,0.0449,-0.0074,0.3262,1.1936,-9.7471,1.7387,6.9993,172.7859,0.0000,0.0000,0.0000,0.0000,0.0000,หนึ่ง
52912,-0.2074,0.0836,0.0128,0.3298,1.2839,-9.7370,1.7572,7.0501,172.7320,0.0000,0.0000,0.0000,0.0000,0.0000,หนึ่ง
53028,-0.2282,0.0811,0.0041,0.3304,1.2456,-9.7591,1.7739,7.0721,172.7066,0.0000,0.0000,0.0000,0.0000,0.0000,หนึ่ง
53144,-0.1947,0.0675,-0.0285,0.3783,1.2193,-9.7154,1.8176,7.0797,172.6884,0.0000,0.0000,0.0000,0.0000,0.0000,หนึ่ง
53260,-0.1682,0.1266,0.0481,0.6093,1.2857,-9.8884,1.9880,7.1119,172.6127,0.0000,0.0000,0.0000,0.0000,0.0000,break_time
53376,-0.3268,0.0040,0.0603,0.2993,1.2594,-9.8782,1.9611,7.1271,172.6053,0.0000,0.0000,0.0000,0.0000,0.0000,break_time
53492,-0.2080,0.0502,-0.0297,0.2502,1.1044,-9.7184,1.9118,7.0629,172.6803,0.0000,0.0000,0.0000,0.0000,0.0000,break_time
53608,-0.1690,0.0556,0.0300,0.3214,1.1451,-9.7118,1.9089,7.0289,172.7140,0.0000,0.0000,0.0000,0.0000,0.0000,break_time
53724,-0.1760,0.0821,0.0412,0.3232,1.2486,-9.7106,1.9071,7.0582,172.6862,0.0000,0.0000,0.0000,0.0000,0.0000,break_time
53840,-0.1967,0.0695,-0.0030,0.3190,1.2361,-9.7358,1.9026,7.0755,172.6706,0.0000,0.0000,0.0000,0.0000,0.0000,break_time
53956,-0.2112,0.1002,0.0225,0.3268,1.2660,-9.7328,1.9031,7.1086,172.6385,0.0000,0.0000,0.0000,0.0000,0.0000,break_time
54072,-0.2307,0.0656,0.0165,0.3466,1.2037,-9.7412,1.9150,7.1018,172.6420,0.0000,0.0000,0.0000,0.0000,0.0000,break_time
54188,-0.2166,0.0558,-0.0061,0.3029,1.2031,-9.7453,1.9002,7.0951,172.6524,0.0000,0.0000,0.0000,0.0000,0.0000,break_time
54304,-0.2241,0.0517,0.0303,0.2957,1.2067,-9.7130,1.8833,7.0934,172.6583,0.0000,0.0000,0.0000,0.0000,0.0000,break_time
54420,-0.2023,0.0739,-0.0150,0.3520,1.1930,-9.7699,1.8998,7.0798,172.6672,0.0000,0.0000,0.0000,0.0000,0.0000,break_time
54536,-0.2038,0.0729,0.0207,0.3089,1.1858,-9.7220,1.8904,7.0669,172.6821,0.0000,0.0000,0.0000,0.0000,0.0000,break_time
54652,-0.2037,0.0342,-0.0086,0.3131,1.2127,-9.7489,1.8839,7.0689,172.6819,0.0000,0.0000,0.0000,0.0000,0.0000,break_time
54768,-0.2046,0.0780,0.0162,0.3424,1.2139,-9.6969,1.8961,7.0751,172.6727,0.0000,0.0000,0.0000,0.0000,0.0000,break_time
54884,-0.2029,0.0710,0.0249,0.3244,1.2313,-9.7603,1.8954,7.0862,172.6622,0.0000,0.0000,0.0000,0.0000,0.0000,break_time
55000,-0.2075,0.0907,0.0082,0.3178,1.2331,-9.7124,1.8918,7.1007,172.6491,0.0000,0.0000,0.0000,0.0000,0.0000,break_time
55116,-0.2144,0.0648,0.0285,0.3137,1.2019,-9.7196,1.8861,7.0952,172.6559,0.0000,0.0000,0.0000,0.0000,0.0000,break_time
55232,-0.1933,0.0408,0.0166,0.3496,1.2085,-9.7202,1.9018,7.0940,172.6530,0.0000,0.0000,0.0000,0.0000,0.0000,break_time
55348,-0.1866,0.0663,0.0436,0.2903,1.2259,-9.7741,1.8804,7.0992,172.6535,0.0000,0.0000,0.0000,0.0000,0.0000,break_time
55464,-0.1894,0.1035,0.0102,0.3442,1.2061,-9.7525,1.8929,7.0938,172.6554,0.0000,0.0000,0.0000,0.0000,0.0000,break_time
55580,-0.1819,0.0592,-0.0057,0.3023,1.2372,-9.7190,1.8804,7.1096,172.6435,0.0000,0.0000,0.0000,0.0000,0.0000,break_time
55696,-0.1997,0.0742,-0.0008,0.3041,1.2019,-9.7513,1.8696,7.1009,172.6546,0.0000,0.0000,0.0000,0.0000,0.0000,break_time
55812,-0.2154,0.0660,-0.0510,0.3292,1.1732,-9.7477,1.8747,7.0767,172.6767,0.0000,0.0000,0.0000,0.0000,0.0000,break_time
55928,-0.2267,0.0604,-0.0104,0.2957,1.2067,-9.7316,1.8600,7.0756,172.6816,0.0000,0.0000,0.0000,0.0000,0.0000,break_time
56044,-0.1820,0.0590,-0.0690,0.2897,1.2187,-9.7471,1.8429,7.0804,172.6813,0.0000,0.0000,0.0000,0.0000,0.0000,break_time
56160,-0.1985,0.0479,-0.0267,0.3460,1.2714,-9.7477,1.8602,7.1151,172.6434,0.0000,0.0000,0.0000,0.0000,0.0000,break_time
56276,-0.1945,0.0785,0.0075,0.3508,1.2606,-9.7495,1.8785,7.1398,172.6147,0.0000,0.0000,0.0000,0.0000,0.0000,nothing
56392,-0.2075,0.0732,0.0300,0.2640,1.2498,-9.7388,1.8447,7.1569,172.6068,0.0000,0.0000,0.0000,0.0000,0.0000,nothing
56508,-0.2206,0.0859,-0.0124,0.3520,1.1912,-9.7585,1.8653,7.1367,172.6211,0.0000,0.0000,0.0000,0.0000,0.0000,nothing
56624,-0.2132,0.0481,-0.0378,0.3011,1.2187,-9.7154,1.8549,7.1376,172.6228,0.0000,0.0000,0.0000,0.0000,0.0000,nothing
56740,-0.1894,0.0721,0.0149,0.3573,1.1930,-9.7340,1.8781,7.1221,172.6319,0.0000,0.0000,0.0000,0.0000,0.0000,nothing
56856,-0.2155,0.0770,-0.0502,0.2442,1.2193,-9.7447,1.8327,7.1229,172.6427,0.0000,0.0000,0.0000,0.0000,0.0000,nothing
56972,-0.1985,0.0650,0.0577,0.3172,1.2307,-9.7693,1.8340,7.1283,172.6372,0.0000,0.0000,0.0000,0.0000,0.0000,หนึ่ง
57088,-0.4063,0.0982,0.0645,0.0239,1.3935,-9.5766,1.6671,7.2420,172.5665,0.0000,0.0000,0.0000,0.0000,0.0000,หนึ่ง
57204,-0.1366,0.0728,0.0192,0.2891,1.0164,-9.6556,1.6710,7.1196,172.6850,0.0000,0.0000,0.0000,0.0000,0.0000,หนึ่ง
57320,-0.0804,0.0389,0.0074,0.4166,1.3013,-9.7801,1.7462,7.1652,172.6229,0.0000,0.0000,0.0000,0.0000,0.0000,หนึ่ง
57436,-0.1817,0.0821,0.0003,0.3723,1.3540,-9.6909,1.7894,7.2434,172.5365,0.0000,0.0000,0.0000,0.0000,0.0000,หนึ่ง
57552,-0.2676,0.0953,0.0451,0.3160,1.3528,-9.7136,1.7951,7.3115,172.4690,0.0000,0.0000,0.0000,0.0000,0.0000,หนึ่ง
57668,-0.2624,0.0753,0.0423,0.2951,1.2462,-9.7549,1.7874,7.3081,172.4742,0.0000,0.0000,0.0000,0.0000,0.0000,หนึ่ง
57784,-0.2183,0.0762,-0.0284,0.3089,1.2205,-9.7340,1.7890,7.2916,172.4899,0.0000,0.0000,0.0000,0.0000,0.0000,หนึ่ง
57900,-0.2068,0.0860,0.0262,0.3077,1.2085,-9.7597,1.7893,7.2679,172.5128,0.0000,0.0000,0.0000,0.0000,0.0000,หนึ่ง
58016,-0.2196,0.0833,0.0323,0.3226,1.1834,-9.7609,1.7983,7.2319,172.5455,0.0000,0.0000,0.0000,0.0000,0.0000,หนึ่ง
58132,-0.1444,0.1122,0.0342,0.3490,1.2181,-9.7208,1.8225,7.2225,172.5487,0.0000,0.0000,0.0000,0.0000,0.0000,break_time
58248,-0.1797,0.0397,-0.0123,0.4190,0.9990,-9.7058,1.8859,7.0880,172.6629,0.0000,0.0000,0.0000,0.0000,0.0000,break_time
58364,-0.1376,0.0304,0.0237,0.2508,1.2833,-9.7693,1.8429,7.1275,172.6357,0.0000,0.0000,0.0000,0.0000,0.0000,break_time
58480,-0.2078,0.0586,-0.0427,0.3687,1.2726,-9.7663,1.8731,7.1568,172.5997,0.0000,0.0000,0.0000,0.0000,0.0000,break_time
58596,-0.2206,0.0436,-0.0044,0.3250,1.2540,-9.7106,1.8760,7.1765,172.5799,0.0000,0.0000,0.0000,0.0000,0.0000,break_time
58712,-0.1860,0.0871,-0.0224,0.3478,1.2241,-9.7034,1.8920,7.1774,172.5749,0.0000,0.0000,0.0000,0.0000,0.0000,break_time
58828,-0.2022,0.0502,0.0174,0.3358,1.2157,-9.7244,1.8990,7.1718,172.5785,0.0000,0.0000,0.0000,0.0000,0.0000,break_time
58944,-0.2239,0.0612,-0.0503,0.2777,1.2121,-9.7986,1.8701,7.1595,172.5979,0.0000,0.0000,0.0000,0.0000,0.0000,break_time
59060,-0.2358,0.0529,0.0327,0.3131,1.2181,-9.7346,1.8658,7.1564,172.6019,0.0000,0.0000,0.0000,0.0000,0.0000,break_time
59176,-0.1962,0.0943,0.0157,0.3340,1.2396,-9.7531,1.8738,7.1647,172.5918,0.0000,0.0000,0.0000,0.0000,0.0000,break_time
59292,-0.2154,0.0513,0.0132,0.3358,1.2253,-9.7328,1.8825,7.1653,172.5890,0.0000,0.0000,0.0000,0.0000,0.0000,break_time
59408,-0.2161,0.0744,0.0275,0.2825,1.2205,-9.7286,1.8593,7.1636,172.5966,0.0000,0.0000,0.0000,0.0000,0.0000,break_time
59524,-0.2008,0.0623,0.0345,0.3484,1.2223,-9.7555,1.8764,7.1609,172.5948,0.0000,0.0000,0.0000,0.0000,0.0000,break_time
59640,-0.2153,0.0834,0.1261,0.2855,1.2450,-9.7406,1.8553,7.1729,172.5886,0.0000,0.0000,0.0000,0.0000,0.0000,break_time
59756,-0.1982,0.0716,-0.0271,0.1538,1.1989,-9.7579,1.7593,7.1561,172.6286,0.0000,0.0000,0.0000,0.0000,0.0000,break_time
59872,-0.2254,0.0615,0.0023,0.1688,1.1744,-9.7184,1.6824,7.1295,172.6727,0.0000,0.0000,0.0000,0.0000,0.0000,break_time
59988,-0.2034,0.0472,0.0601,0.3514,1.1900,-9.7807,1.7185,7.1098,172.6834,0.0000,0.0000,0.0000,0.0000,0.0000,break_time
60104,-0.2001,0.0660,-0.0059,0.2777,1.2325,-9.7477,1.7086,7.1191,172.6767,0.0000,0.0000,0.0000,0.0000,0.0000,break_time
60220,-0.2030,0.0821,0.0935,0.3256,1.2253,-9.7555,1.7274,7.1227,172.6687,0.0000,0.0000,0.0000,0.0000,0.0000,break_time
60336,-0.1926,0.0690,-0.0154,0.2873,1.2289,-9.7615,1.7219,7.1276,172.6652,0.0000,0.0000,0.0000,0.0000,0.0000,break_time
60452,-0.1992,0.0526,-0.0149,0.4441,1.2049,-9.7274,1.8091,7.1203,172.6511,0.0000,0.0000,0.0000,0.0000,0.0000,break_time
60568,-0.1907,0.0823,-0.0558,0.3232,1.0894,-9.7459,1.8169,7.0459,172.7213,0.0000,0.0000,0.0000,0.0000,0.0000,break_time
60684,-0.1918,0.0643,-0.0136,0.3113,1.2432,-9.7226,1.8171,7.0696,172.6983,0.0000,0.0000,0.0000,0.0000,0.0000,break_time
60800,-0.2067,0.0686,0.0064,0.2849,1.2420,-9.7322,1.8018,7.0896,172.6828,0.0000,0.0000,0.0000,0.0000,0.0000,break_time
60916,-0.2258,0.0394,-0.0104,0.3071,1.2013,-9.7220,1.8011,7.0847,172.6877,0.0000,0.0000,0.0000,0.0000,0.0000,break_time
61032,-0.2382,0.0513,0.0399,0.3514,1.2205,-9.7220,1.8264,7.0913,172.6749,0.0000,0.0000,0.0000,0.0000,0.0000,break_time
61148,-0.2206,0.0622,0.0300,0.3190,1.1983,-9.7232,1.8302,7.0844,172.6806,0.0000,0.0000,0.0000,0.0000,0.0000,nothing
61264,-0.2161,0.0544,0.0079,0.3083,1.2402,-9.7483,1.8269,7.1007,172.6657,0.0000,0.0000,0.0000,0.0000,0.0000,nothing
61380,-0.2005,0.0724,0.0465,0.3448,1.2001,-9.7495,1.8452,7.0919,172.6695,0.0000,0.0000,0.0000,0.0000,0.0000,nothing
61496,-0.2116,0.0858,-0.0125,0.2873,1.2247,-9.7699,1.8278,7.0970,172.6691,0.0000,0.0000,0.0000,0.0000,0.0000,nothing
61612,-0.1790,0.0729,0.0161,0.3184,1.1882,-9.7172,1.8313,7.0840,172.6807,0.0000,0.0000,0.0000,0.0000,0.0000,nothing
61728,-0.1821,0.0374,0.0031,0.3532,1.1858,-9.7878,1.8534,7.0659,172.6927,0.0000,0.0000,0.0000,0.0000,0.0000,nothing
61844,-0.1789,0.0510,0.0157,0.2957,1.2223,-9.7681,1.8401,7.0722,172.6900,0.0000,0.0000,0.0000,0.0000,0.0000,nothing
61960,-0.1924,0.0680,-0.0530,0.2927,1.2402,-9.7525,1.8266,7.0894,172.6767,0.0000,0.0000,0.0000,0.0000,0.0000,nothing
62076,-0.2012,0.0675,0.0450,0.3436,1.2127,-9.7232,1.8447,7.0910,172.6706,0.0000,0.0000,0.0000,0.0000,0.0000,nothing
62192,-0.2012,0.0661,-0.0369,0.3406,1.2289,-9.7094,1.8595,7.1027,172.6554,0.0000,0.0000,0.0000,0.0000,0.0000,nothing
62308,-0.2046,0.0596,0.0035,0.2831,1.2444,-9.7274,1.8390,7.1212,172.6428,0.0000,0.0000,0.0000,0.0000,0.0000,nothing
62424,-0.1914,0.0860,-0.0040,0.2963,1.2031,-9.7280,1.8282,7.1138,172.6527,0.0000,0.0000,0.0000,0.0000,0.0000,nothing
62540,-0.2194,0.0509,0.0442,0.3508,1.2319,-9.7603,1.8497,7.1213,172.6400,0.0000,0.0000,0.0000,0.0000,0.0000,nothing
62656,-0.2218,0.0830,0.0225,0.3220,1.2438,-9.7250,1.8528,7.1376,172.6234,0.0000,0.0000,0.0000,0.0000,0.0000,nothing
62772,-0.2273,0.0746,0.0716,0.3041,1.2103,-9.7489,1.8448,7.1312,172.6316,0.0000,0.0000,0.0000,0.0000,0.0000,nothing
62888,-0.1948,0.0826,-0.0155,0.3178,1.2037,-9.7184,1.8462,7.1238,172.6384,0.0000,0.0000,0.0000,0.0000,0.0000,nothing
63004,-0.2023,0.0856,-0.0352,0.3053,1.2097,-9.7537,1.8395,7.1181,172.6457,0.0000,0.0000,0.0000,0.0000,0.0000,nothing
63120,-0.2143,0.0635,-0.0070,0.3370,1.1912,-9.7465,1.8521,7.1026,172.6574,0.0000,0.0000,0.0000,0.0000,0.0000,nothing
63236,-0.2082,0.0687,-0.0158,0.3166,1.2450,-9.7364,1.8517,7.1207,172.6401,0.0000,0.0000,0.0000,0.0000,0.0000,nothing
63352,-0.1876,0.0686,0.0627,0.3250,1.1846,-9.7585,1.8559,7.1003,172.6587,0.0000,0.0000,0.0000,0.0000,0.0000,nothing
63468,-0.2003,0.0533,-0.0311,0.3137,1.2103,-9.7567,1.8530,7.0971,172.6626,0.0000,0.0000,0.0000,0.0000,0.0000,nothing
63584,-0.1948,0.0750,0.0480,0.3232,1.2331,-9.7340,1.8564,7.1089,172.6503,0.0000,0.0000,0.0000,0.0000,0.0000,nothing
63700,-0.2033,0.0525,-0.0326,0.2981,1.0822,-9.7298,1.8452,7.0326,172.7270,0.0000,0.0000,0.0000,0.0000,0.0000,nothing
63816,-0.1962,0.1099,0.0049,0.3388,1.2049,-9.7430,1.8583,7.0339,172.7223,0.0000,0.0000,0.0000,0.0000,0.0000,nothing
63932,-0.1821,0.0293,-0.0372,0.3131,1.2037,-9.7274,1.8555,7.0356,172.7214,0.0000,0.0000,0.0000,0.0000,0.0000,nothing
64048,-0.1820,0.0623,-0.0061,0.3208,1.2235,-9.7394,1.8571,7.0477,172.7093,0.0000,0.0000,0.0000,0.0000,0.0000,nothing
64164,-0.2153,0.0721,-0.0008,0.3334,1.2480,-9.7202,1.8662,7.0741,172.6814,0.0000,0.0000,0.0000,0.0000,0.0000,nothing
64280,-0.1805,0.0499,0.0342,0.2933,1.1953,-9.7735,1.8502,7.0636,172.6957,0.0000,0.0000,0.0000,0.0000,0.0000,nothing
64396,-0.2011,0.0900,0.0038,0.3334,1.2295,-9.7376,1.8597,7.0765,172.6808,0.0000,0.0000,0.0000,0.0000,0.0000,nothing
64512,-0.1658,0.0840,0.0065,0.3047,1.2241,-9.7561,1.8512,7.0836,172.6761,0.0000,0.0000,0.0000,0.0000,0.0000,nothing
64628,-0.2067,0.0808,0.0239,0.3508,1.2091,-9.7178,1.8712,7.0841,172.6705,0.0000,0.0000,0.0000,0.0000,0.0000,nothing
64744,-0.2352,0.0634,0.0255,0.3089,1.2343,-9.7621,1.8638,7.0959,172.6609,0.0000,0.0000,0.0000,0.0000,0.0000,nothing
64860,-0.2060,0.0619,-0.0064,0.3202,1.2343,-9.7657,1.8638,7.1063,172.6509,0.0000,0.0000,0.0000,0.0000,0.0000,nothing
64976,-0.2049,0.0738,0.0286,0.3023,1.2372,-9.7334,1.8539,7.1197,172.6404,0.0000,0.0000,0.0000,0.0000,0.0000,nothing
65092,-0.2053,0.0783,-0.0052,0.3029,1.2247,-9.7334,1.8453,7.1245,172.6380,0.0000,0.0000,0.0000,0.0000,0.0000,nothing
65208,-0.2024,0.0851,0.0338,0.3131,1.2097,-9.7268,1.8437,7.1207,172.6421,0.0000,0.0000,0.0000,0.0000,0.0000,nothing
65324,-0.1793,0.1021,-0.0165,0.3065,1.2085,-9.7340,1.8383,7.1160,172.6480,0.0000,0.0000,0.0000,0.0000,0.0000,nothing
65440,-0.1791,0.0455,0.0327,0.3526,1.2115,-9.7352,1.8603,7.1133,172.6450,0.0000,0.0000,0.0000,0.0000,0.0000,nothing
65556,-0.2361,0.0534,-0.0134,0.2706,1.2223,-9.7453,1.8321,7.1166,172.6490,0.0000,0.0000,0.0000,0.0000,0.0000,nothing
65672,-0.1855,0.0729,0.0378,0.3879,1.1959,-9.7352,1.8753,7.1048,172.6494,0.0000,0.0000,0.0000,0.0000,0.0000,nothing
65788,-0.1898,0.0365,-0.0496,0.2903,1.2271,-9.7124,1.8577,7.1140,172.6450,0.0000,0.0000,0.0000,0.0000,0.0000,nothing
65904,-0.1857,0.0523,0.0067,0.3376,1.1720,-9.7436,1.8689,7.0881,172.6672,0.0000,0.0000,0.0000,0.0000,0.0000,nothing
66020,-0.1869,0.0517,-0.0303,0.3795,1.2462,-9.7513,1.9032,7.1071,172.6400,0.0000,0.0000,0.0000,0.0000,0.0000,nothing
66136,-0.1748,0.0691,0.0333,0.3358,1.2241,-9.7334,1.9089,7.1128,172.6330,0.0000,0.0000,0.0000,0.0000,0.0000,nothing
66252,-0.2221,0.0723,0.0057,0.3406,1.2875,-9.7220,1.9169,7.1554,172.5897,0.0000,0.0000,0.0000,0.0000,0.0000,nothing
66368,-0.2256,0.0744,0.0113,0.3083,1.2283,-9.7023,1.9058,7.1610,172.5872,0.0000,0.0000,0.0000,0.0000,0.0000,nothing
66484,-0.2135,0.0864,0.0247,0.2843,1.2193,-9.7489,1.8809,7.1575,172.5970,0.0000,0.0000,0.0000,0.0000,0.0000,nothing
66600,-0.2114,0.0609,0.0050,0.1862,1.1894,-9.7394,1.8016,7.1379,172.6359,0.0000,0.0000,0.0000,0.0000,0.0000,nothing
66716,-0.1979,0.0791,0.0154,0.3705,1.1618,-9.7304,1.8379,7.1046,172.6592,0.0000,0.0000,0.0000,0.0000,0.0000,nothing
66832,-0.1731,0.0464,0.0078,0.3047,1.2390,-9.7459,1.8317,7.1183,172.6474,0.0000,0.0000,0.0000,0.0000,0.0000,nothing
66948,-0.2080,0.0983,0.0120,0.3196,1.2169,-9.7005,1.8358,7.1211,172.6437,0.0000,0.0000,0.0000,0.0000,0.0000,nothing
67064,-0.2023,0.0444,0.0049,0.3196,1.2133,-9.7549,1.8385,7.1176,172.6464,0.0000,0.0000,0.0000,0.0000,0.0000,nothing
67180,-0.1787,0.0597,-0.0234,0.3005,1.2343,-9.7777,1.8292,7.1250,172.6416,0.0000,0.0000,0.0000,0.0000,0.0000,nothing
67296,-0.2086,0.0465,-0.0455,0.3107,1.2390,-9.7142,1.8280,7.1390,172.6283,0.0000,0.0000,0.0000,0.0000,0.0000,nothing
67412,-0.2390,0.0894,-0.0513,0.2652,1.2923,-9.6957,1.8006,7.1839,172.5916,0.0000,0.0000,0.0000,0.0000,0.0000,nothing
67528,-0.2114,0.0840,0.0458,0.2963,1.1600,-9.7334,1.7937,7.1449,172.6311,0.0000,0.0000,0.0000,0.0000,0.0000,nothing
67644,-0.1819,0.0657,0.0290,0.3998,1.1942,-9.7412,1.8476,7.1287,172.6333,0.0000,0.0000,0.0000,0.0000,0.0000,nothing
67760,-0.2135,0.0613,-0.0401,0.4489,1.1582,-9.6957,1.9258,7.0965,172.6442,0.0000,0.0000,0.0000,0.0000,0.0000,nothing
67876,-0.1819,0.0562,0.0154,0.1802,1.2199,-9.7304,1.8385,7.1014,172.6621,0.0000,0.0000,0.0000,0.0000,0.0000,nothing
67992,-0.2172,0.0553,0.0034,0.2586,1.2253,-9.7471,1.8054,7.1075,172.6645,0.0000,0.0000,0.0000,0.0000,0.0000,nothing
68108,-0.2571,0.0843,0.0110,0.4429,1.1624,-9.6663,1.8849,7.0820,172.6690,0.0000,0.0000,0.0000,0.0000,0.0000,nothing
68224,-0.1921,0.0612,-0.0026,0.3406,1.0996,-9.7926,1.8944,7.0137,172.7325,0.0000,0.0000,0.0000,0.0000,0.0000,nothing
68340,-0.1482,0.0541,0.0344,0.2670,1.1558,-9.7513,1.8606,6.9881,172.7661,0.0000,0.0000,0.0000,0.0000,0.0000,nothing
68456,-0.0867,0.1386,0.0364,0.6782,1.0254,-9.7866,2.0698,6.8859,172.8069,0.0000,0.0000,0.0000,0.0000,0.0000,nothing
68572,-0.1969,-0.0281,0.0157,0.3723,1.1211,-9.9070,2.0768,6.8418,172.8470,0.0000,0.0000,0.0000,0.0000,0.0000,nothing
68688,-0.2511,0.0326,-0.0080,0.1963,1.2205,-9.7160,1.9843,6.8735,172.8432,0.0000,0.0000,0.0000,0.0000,0.0000,nothing
68804,-0.2263,0.0971,0.0312,0.3065,1.2211,-9.7477,1.9646,6.8998,172.8233,0.0000,0.0000,0.0000,0.0000,0.0000,nothing
68920,-0.2233,0.0746,0.0234,0.3849,1.1343,-9.7262,1.9931,6.8746,172.8397,0.0000,0.0000,0.0000,0.0000,0.0000,nothing
69036,-0.1392,0.0284,0.0120,0.2604,1.1810,-9.7567,1.9455,6.8771,172.8505,0.0000,0.0000,0.0000,0.0000,0.0000,nothing
69152,-0.1970,0.0420,0.0041,0.2346,1.2163,-9.7220,1.8883,6.9022,172.8417,0.0000,0.0000,0.0000,0.0000,0.0000,nothing
69268,-0.2083,0.0536,-0.0485,0.5076,1.2827,-9.7789,1.9946,6.9587,172.7584,0.0000,0.0000,0.0000,0.0000,0.0000,nothing
69384,-0.2541,0.0485,0.0459,0.2718,1.2564,-9.7555,1.9534,6.9965,172.7333,0.0000,0.0000,0.0000,0.0000,0.0000,nothing
69500,-0.2009,0.0708,0.0269,0.2891,1.1702,-9.7459,1.9268,6.9812,172.7552,0.0000,0.0000,0.0000,0.0000,0.0000,nothing
69616,-0.2024,0.0774,0.0041,0.3059,1.2402,-9.7430,1.9125,7.0082,172.7330,0.0000,0.0000,0.0000,0.0000,0.0000,nothing
69732,-0.2267,0.0796,-0.0307,0.3532,1.2079,-9.7244,1.9276,7.0150,172.7224,0.0000,0.0000,0.0000,0.0000,0.0000,nothing
69848,-0.2855,0.0440,-0.0341,0.4076,0.9056,-9.8866,1.9705,6.8347,172.8844,0.0000,0.0000,0.0000,0.0000,0.0000,nothing
69964,0.2361,0.0209,-0.0491,0.3609,0.6854,-9.8028,1.9840,6.5510,173.1526,0.0000,0.0000,0.0000,0.0000,0.0000,หนึ่ง
70080,-0.0590,0.0202,0.0609,0.3657,1.4473,-9.7531,1.9981,6.7400,172.9675,0.0000,0.0000,0.0000,0.0000,0.0000,หนึ่ง
70196,-0.3431,0.1527,0.0383,0.3879,1.4485,-9.6921,2.0250,6.9148,172.7920,0.0000,0.0000,0.0000,0.0000,0.0000,หนึ่ง
70312,-0.3044,0.0877,0.0080,0.2861,1.1391,-9.7681,1.9891,6.8882,172.8277,0.0000,0.0000,0.0000,0.0000,0.0000,หนึ่ง
70428,-0.1992,0.0673,-0.0198,0.3143,1.1528,-9.7154,1.9743,6.8758,172.8438,0.0000,0.0000,0.0000,0.0000,0.0000,หนึ่ง
70544,-0.1813,0.0645,0.0158,0.3089,1.1774,-9.7196,1.9576,6.8786,172.8457,0.0000,0.0000,0.0000,0.0000,0.0000,หนึ่ง
70660,-0.1785,0.0870,-0.0983,0.3154,1.2492,-9.7549,1.9455,6.9201,172.8090,0.0000,0.0000,0.0000,0.0000,0.0000,หนึ่ง
70776,-0.1969,0.0852,-0.0292,0.3238,1.1959,-9.7567,1.9397,6.9266,172.8044,0.0000,0.0000,0.0000,0.0000,0.0000,หนึ่ง
70892,-0.1951,0.0694,0.0097,0.3310,1.2145,-9.7579,1.9385,6.9430,172.7889,0.0000,0.0000,0.0000,0.0000,0.0000,หนึ่ง
71008,-0.2046,0.0751,0.0586,0.3184,1.1918,-9.7208,1.9309,6.9473,172.7868,0.0000,0.0000,0.0000,0.0000,0.0000,หนึ่ง
71124,-0.1895,0.0882,-0.0158,0.3346,1.2546,-9.7705,1.9324,6.9839,172.7511,0.0000,0.0000,0.0000,0.0000,0.0000,หนึ่ง
71240,-0.1778,0.0743,0.0019,0.2819,1.2468,-9.7340,1.9037,7.0151,172.7286,0.0000,0.0000,0.0000,0.0000,0.0000,หนึ่ง
71356,-0.2011,0.0657,-0.0465,0.3424,1.1660,-9.7561,1.9129,6.9947,172.7459,0.0000,0.0000,0.0000,0.0000,0.0000,หนึ่ง
71472,-0.1735,0.0495,0.0342,0.3298,1.2103,-9.7531,1.9138,7.0023,172.7384,0.0000,0.0000,0.0000,0.0000,0.0000,หนึ่ง
71588,-0.2020,0.0793,-0.0500,0.3322,1.2187,-9.6681,1.9177,7.0199,172.7203,0.0000,0.0000,0.0000,0.0000,0.0000,break_time
71704,-0.1178,0.0871,-0.0294,0.2478,1.2720,-9.6586,1.8719,7.0676,172.6862,0.0000,0.0000,0.0000,0.0000,0.0000,break_time
71820,-0.1579,0.0541,0.0149,0.3550,1.2851,-9.7453,1.8916,7.1117,172.6385,0.0000,0.0000,0.0000,0.0000,0.0000,break_time
71936,-0.2083,0.0728,-0.0234,0.3352,1.2672,-9.7160,1.8984,7.1431,172.6064,0.0000,0.0000,0.0000,0.0000,0.0000,break_time
72052,-0.2443,0.0954,0.0254,0.3125,1.2684,-9.7094,1.8913,7.1726,172.5797,0.0000,0.0000,0.0000,0.0000,0.0000,break_time
72168,-0.2138,0.0803,-0.0484,0.3448,1.1912,-9.7639,1.9030,7.1504,172.5981,0.0000,0.0000,0.0000,0.0000,0.0000,break_time
72284,-0.1827,0.0364,0.0228,0.2658,1.2181,-9.7400,1.8677,7.1480,172.6096,0.0000,0.0000,0.0000,0.0000,0.0000,break_time
72400,-0.2127,0.0588,-0.0380,0.3502,1.1959,-9.7579,1.8850,7.1315,172.6211,0.0000,0.0000,0.0000,0.0000,0.0000,break_time
72516,-0.1985,0.0410,0.0158,0.3358,1.2037,-9.7382,1.8925,7.1225,172.6278,0.0000,0.0000,0.0000,0.0000,0.0000,break_time
72632,-0.2034,0.0410,0.0292,0.2849,1.2175,-9.7424,1.8695,7.1223,172.6339,0.0000,0.0000,0.0000,0.0000,0.0000,break_time
72748,-0.1193,0.0181,-0.0264,0.3029,1.1570,-9.7956,1.8584,7.0832,172.6746,0.0000,0.0000,0.0000,0.0000,0.0000,break_time
72864,-0.2480,0.0706,0.0278,0.2999,1.3145,-9.7555,1.8470,7.1421,172.6205,0.0000,0.0000,0.0000,0.0000,0.0000,break_time
72980,-0.2556,0.0762,-0.0046,0.2322,1.2684,-9.7214,1.7981,7.1710,172.6047,0.0000,0.0000,0.0000,0.0000,0.0000,break_time
73096,-0.1427,0.0896,-0.0383,0.0377,1.1385,-9.7597,1.6403,7.1195,172.6921,0.0000,0.0000,0.0000,0.0000,0.0000,break_time
73212,-0.1280,0.0762,0.0383,0.3825,1.1008,-9.6717,1.7008,7.0568,172.7391,0.0000,0.0000,0.0000,0.0000,0.0000,break_time
73328,-0.1630,0.0323,-0.0583,0.3615,1.1098,-9.7394,1.7419,7.0008,172.7836,0.0000,0.0000,0.0000,0.0000,0.0000,break_time
73444,-0.0664,-0.0382,-0.0116,0.1676,1.0906,-9.7992,1.6648,6.9355,172.8656,0.0000,0.0000,0.0000,0.0000,0.0000,break_time
73560,-0.1460,0.0031,0.0365,0.3292,1.3612,-9.7076,1.6907,7.0395,172.7583,0.0000,0.0000,0.0000,0.0000,0.0000,break_time
73676,-0.1655,0.0628,-0.0391,0.3238,1.2468,-9.7334,1.7106,7.0652,172.7286,0.0000,0.0000,0.0000,0.0000,0.0000,break_time
73792,-0.1591,0.0969,0.0177,0.3998,1.1989,-9.7220,1.7732,7.0611,172.7174,0.0000,0.0000,0.0000,0.0000,0.0000,break_time
73908,-0.1806,0.0815,0.0181,0.2813,1.3971,-9.6574,1.7611,7.1772,172.6076,0.0000,0.0000,0.0000,0.0000,0.0000,break_time
74024,-0.1881,0.1111,-0.0249,0.2759,1.2797,-9.6873,1.7468,7.2117,172.5776,0.0000,0.0000,0.0000,0.0000,0.0000,break_time
74140,-0.2491,0.0648,0.0305,0.3089,1.1762,-9.7675,1.7520,7.1767,172.6104,0.0000,0.0000,0.0000,0.0000,0.0000,break_time
74256,-0.2022,0.0412,0.0161,0.2933,1.1469,-9.7621,1.7477,7.1287,172.6581,0.0000,0.0000,0.0000,0.0000,0.0000,break_time
74372,-0.1660,0.0369,-0.0750,0.2957,1.2522,-9.7394,1.7454,7.1481,172.6397,0.0000,0.0000,0.0000,0.0000,0.0000,break_time
74488,-0.1977,0.0468,0.0304,0.3538,1.2265,-9.7747,1.7767,7.1480,172.6322,0.0000,0.0000,0.0000,0.0000,0.0000,break_time
74604,-0.2093,0.0738,-0.0078,0.2245,1.2516,-9.7220,1.7302,7.1666,172.6253,0.0000,0.0000,0.0000,0.0000,0.0000,nothing
74720,-0.1712,0.0579,0.0155,0.4016,1.1882,-9.7160,1.7921,7.1467,172.6298,0.0000,0.0000,0.0000,0.0000,0.0000,สอง
74836,-0.2530,0.0567,0.0068,0.2466,1.3324,-9.8136,1.7552,7.2055,172.5816,0.0000,0.0000,0.0000,0.0000,0.0000,สอง
74952,-0.2108,0.0716,-0.0157,0.2861,1.0696,-9.7250,1.7472,7.1126,172.6738,0.0000,0.0000,0.0000,0.0000,0.0000,สอง
75068,-0.2417,0.1119,-0.0365,0.2765,1.1846,-9.7388,1.7340,7.0946,172.6944,0.0000,0.0000,0.0000,0.0000,0.0000,break_time
75184,-0.2488,0.0495,-0.0262,0.2041,1.1804,-9.6675,1.6810,7.0812,172.7200,0.0000,0.0000,0.0000,0.0000,0.0000,break_time
75300,-0.1881,0.0440,-0.0309,0.2873,1.1379,-9.7459,1.6807,7.0388,172.7614,0.0000,0.0000,0.0000,0.0000,0.0000,break_time
75416,-0.1677,0.0506,-0.0451,0.3573,1.1546,-9.7118,1.7217,7.0125,172.7771,0.0000,0.0000,0.0000,0.0000,0.0000,break_time
75532,-0.1339,0.0553,0.0097,0.2981,1.2366,-9.7424,1.7234,7.0344,172.7555,0.0000,0.0000,0.0000,0.0000,0.0000,break_time
75648,-0.1735,0.0492,0.0199,0.3286,1.2600,-9.7178,1.7432,7.0693,172.7169,0.0000,0.0000,0.0000,0.0000,0.0000,break_time
75764,-0.1929,0.0753,-0.0267,0.2957,1.2235,-9.7238,1.7417,7.0792,172.7076,0.0000,0.0000,0.0000,0.0000,0.0000,break_time
75880,-0.1936,0.0723,0.0447,0.3448,1.2349,-9.7214,1.7690,7.0947,172.6859,0.0000,0.0000,0.0000,0.0000,0.0000,break_time
75996,-0.2206,0.0639,-0.0106,0.3304,1.2492,-9.7621,1.7844,7.1141,172.6633,0.0000,0.0000,0.0000,0.0000,0.0000,break_time
76112,-0.2176,0.0905,0.0339,0.3963,1.2181,-9.7453,1.8371,7.1146,172.6497,0.0000,0.0000,0.0000,0.0000,0.0000,break_time
76228,-0.2236,0.0264,0.0498,0.3017,1.2103,-9.7507,1.8292,7.1104,172.6557,0.0000,0.0000,0.0000,0.0000,0.0000,break_time
76344,-0.2076,0.0642,-0.0158,0.3166,1.2037,-9.7118,1.8316,7.1055,172.6598,0.0000,0.0000,0.0000,0.0000,0.0000,break_time
76460,-0.2369,0.0588,0.0345,0.3394,1.2049,-9.7388,1.8466,7.0999,172.6616,0.0000,0.0000,0.0000,0.0000,0.0000,break_time
76576,-0.2140,0.0682,-0.0326,0.3573,1.2199,-9.7268,1.8707,7.1042,172.6511,0.0000,0.0000,0.0000,0.0000,0.0000,break_time
76692,-0.1714,0.1699,0.0369,0.6435,1.3713,-9.6101,2.0613,7.2037,172.5042,0.0000,0.0000,0.0000,0.0000,0.0000,break_time
76808,-0.3468,0.1091,0.0251,0.2568,1.3971,-9.7358,2.0046,7.3000,172.4269,0.0000,0.0000,0.0000,0.0000,0.0000,break_time
76924,-0.2857,0.0807,0.0364,0.2652,1.2361,-9.5933,1.9617,7.3039,172.4345,0.0000,0.0000,0.0000,0.0000,0.0000,break_time
77040,-0.2318,-0.0145,0.0384,0.2065,1.0613,-9.8896,1.8834,7.1843,172.5704,0.0000,0.0000,0.0000,0.0000,0.0000,break_time
77156,-0.1562,0.0474,-0.0019,0.1700,1.0756,-9.7394,1.7946,7.0961,172.6782,0.0000,0.0000,0.0000,0.0000,0.0000,break_time
77272,-0.1715,0.1018,-0.0251,0.2801,1.2289,-9.7017,1.7792,7.1081,172.6704,0.0000,0.0000,0.0000,0.0000,0.0000,break_time
77388,-0.2080,0.0668,-0.0082,0.3400,1.2839,-9.7298,1.7998,7.1486,172.6260,0.0000,0.0000,0.0000,0.0000,0.0000,break_time
77504,-0.2378,0.0517,0.0500,0.3711,1.2552,-9.7250,1.8365,7.1687,172.5974,0.0000,0.0000,0.0000,0.0000,0.0000,break_time
77620,-0.2241,0.0683,0.0228,0.3364,1.2462,-9.6963,1.8499,7.1837,172.5794,0.0000,0.0000,0.0000,0.0000,0.0000,break_time
77736,-0.2191,0.0772,0.0376,0.3196,1.2139,-9.7232,1.8518,7.1766,172.5859,0.0000,0.0000,0.0000,0.0000,0.0000,break_time
77852,-0.1963,0.0874,0.0297,0.3370,1.2079,-9.7352,1.8634,7.1658,172.5934,0.0000,0.0000,0.0000,0.0000,0.0000,break_time
77968,-0.1768,0.0862,0.0240,0.3017,1.2372,-9.7412,1.8530,7.1728,172.5893,0.0000,0.0000,0.0000,0.0000,0.0000,break_time
78084,-0.2068,0.0590,0.0139,0.2891,1.1888,-9.7334,1.8366,7.1515,172.6140,0.0000,0.0000,0.0000,0.0000,0.0000,nothing
78200,-0.2020,0.0503,0.0059,0.3358,1.1888,-9.7591,1.8486,7.1304,172.6315,0.0000,0.0000,0.0000,0.0000,0.0000,nothing
78316,-0.1911,0.0513,-0.0367,0.2795,1.2103,-9.7747,1.8262,7.1229,172.6444,0.0000,0.0000,0.0000,0.0000,0.0000,nothing
78432,-0.1501,0.0405,0.0124,0.4477,1.1534,-9.7178,1.9054,7.0869,172.6589,0.0000,0.0000,0.0000,0.0000,0.0000,สาม
78548,-0.2649,0.0213,0.0045,0.4196,1.0996,-9.8459,1.9579,7.0142,172.7150,0.0000,0.0000,0.0000,0.0000,0.0000,สาม
78664,-0.0522,0.0264,0.0033,0.0066,1.1074,-9.7621,1.7659,6.9603,172.8170,0.0000,0.0000,0.0000,0.0000,0.0000,break_time
78780,-0.0311,0.0883,-0.0258,0.4681,1.1600,-9.7274,1.8628,6.9437,172.8084,0.0000,0.0000,0.0000,0.0000,0.0000,break_time
78896,-0.2086,0.0612,0.0380,0.4028,1.2486,-9.7370,1.9115,6.9795,172.7610,0.0000,0.0000,0.0000,0.0000,0.0000,break_time
79012,-0.2560,0.0414,0.0049,0.2544,1.2229,-9.7280,1.8690,6.9978,172.7545,0.0000,0.0000,0.0000,0.0000,0.0000,break_time
79128,-0.1930,0.0708,-0.0164,0.2975,1.2414,-9.7172,1.8561,7.0257,172.7309,0.0000,0.0000,0.0000,0.0000,0.0000,break_time
79244,-0.1838,0.0499,-0.0162,0.3687,1.2079,-9.7358,1.8857,7.0299,172.7191,0.0000,0.0000,0.0000,0.0000,0.0000,break_time
79360,-0.2116,0.0607,0.0049,0.3579,1.2259,-9.7346,1.9061,7.0441,172.7000,0.0000,0.0000,0.0000,0.0000,0.0000,break_time
79476,-0.2215,0.0495,0.0300,0.3059,1.2444,-9.7447,1.8938,7.0671,172.6810,0.0000,0.0000,0.0000,0.0000,0.0000,break_time
79592,-0.2432,0.0720,-0.0095,0.3400,1.2163,-9.7663,1.9023,7.0699,172.6761,0.0000,0.0000,0.0000,0.0000,0.0000,break_time
79708,-0.1951,0.0796,-0.0138,0.3448,1.2372,-9.7501,1.9130,7.0857,172.6581,0.0000,0.0000,0.0000,0.0000,0.0000,break_time
79824,-0.2031,0.0871,-0.0120,0.2939,1.2157,-9.7483,1.8930,7.0877,172.6614,0.0000,0.0000,0.0000,0.0000,0.0000,break_time
79940,-0.2083,0.0795,-0.0309,0.3669,1.1894,-9.7316,1.9180,7.0752,172.6668,0.0000,0.0000,0.0000,0.0000,0.0000,break_time
80056,-0.2174,0.0645,-0.0004,0.4076,1.1971,-9.7597,1.9637,7.0664,172.6631,0.0000,0.0000,0.0000,0.0000,0.0000,break_time
80172,-0.1925,0.0603,-0.0030,0.2310,1.2462,-9.7693,1.9016,7.0866,172.6601,0.0000,0.0000,0.0000,0.0000,0.0000,break_time
80288,-0.1949,0.0757,-0.0622,0.3675,1.1822,-9.7525,1.9257,7.0686,172.6712,0.0000,0.0000,0.0000,0.0000,0.0000,break_time
80404,-0.2230,0.0774,-0.0389,0.3053,1.3665,-9.7190,1.9113,7.1617,172.5851,0.0000,0.0000,0.0000,0.0000,0.0000,break_time
80520,-0.1779,0.0678,0.0067,0.2795,1.1732,-9.7597,1.8830,7.1307,172.6224,0.0000,0.0000,0.0000,0.0000,0.0000,break_time
80636,-0.1880,0.0848,-0.0244,0.3364,1.2492,-9.7130,1.8915,7.1500,172.6015,0.0000,0.0000,0.0000,0.0000,0.0000,break_time
80752,-0.2168,0.0560,-0.0153,0.3077,1.2199,-9.7286,1.8821,7.1494,172.6046,0.0000,0.0000,0.0000,0.0000,0.0000,break_time
80868,-0.2140,0.0754,0.0012,0.3095,1.2097,-9.6873,1.8754,7.1459,172.6096,0.0000,0.0000,0.0000,0.0000,0.0000,break_time
80984,-0.1917,0.0616,-0.0232,0.3442,1.2313,-9.7100,1.8893,7.1535,172.5987,0.0000,0.0000,0.0000,0.0000,0.0000,break_time
81100,-0.1944,0.0789,0.0203,0.3137,1.1666,-9.7591,1.8831,7.1194,172.6332,0.0000,0.0000,0.0000,0.0000,0.0000,break_time
81216,-0.2436,0.0858,0.0115,0.2688,1.2145,-9.7256,1.8519,7.1190,172.6416,0.0000,0.0000,0.0000,0.0000,0.0000,break_time
81332,-0.1637,0.0811,0.0170,0.3729,1.2259,-9.7501,1.8841,7.1232,172.6293,0.0000,0.0000,0.0000,0.0000,0.0000,break_time
81448,-0.2014,0.0498,-0.0046,0.3322,1.2253,-9.7142,1.8900,7.1294,172.6218,0.0000,0.0000,0.0000,0.0000,0.0000,break_time
81564,-0.2054,0.0612,0.0168,0.3633,1.2277,-9.7603,1.9126,7.1329,172.6126,0.0000,0.0000,0.0000,0.0000,0.0000,break_time
81680,-0.1971,0.0750,0.0012,0.2987,1.2480,-9.7513,1.8953,7.1486,172.6019,0.0000,0.0000,0.0000,0.0000,0.0000,nothing
81796,-0.2294,0.0733,0.0149,0.3250,1.2325,-9.7849,1.8945,7.1513,172.5995,0.0000,0.0000,0.0000,0.0000,0.0000,nothing
81912,-0.2240,0.0466,-0.0290,0.3382,1.2223,-9.6969,1.9032,7.1541,172.5945,0.0000,0.0000,0.0000,0.0000,0.0000,nothing
82028,-0.1898,0.0900,-0.0210,0.2532,1.2013,-9.7561,1.8604,7.1405,172.6187,0.0000,0.0000,0.0000,0.0000,0.0000,nothing
82144,-0.1487,0.0004,-0.0350,0.3855,1.2522,-9.7070,1.8998,7.1609,172.5889,0.0000,0.0000,0.0000,0.0000,0.0000,สี่
82260,-0.3709,0.0543,0.0131,0.4615,1.1385,-9.7633,1.9788,7.1091,172.6179,0.0000,0.0000,0.0000,0.0000,0.0000,สี่
82376,-0.1801,-0.0004,-0.0164,0.3214,1.0517,-9.8028,1.9676,7.0098,172.7166,0.0000,0.0000,0.0000,0.0000,0.0000,สี่
82492,-0.0909,0.0451,-0.0255,0.2849,1.1361,-9.6981,1.9382,6.9769,172.7563,0.0000,0.0000,0.0000,0.0000,0.0000,สี่
82608,-0.1861,0.1269,0.0464,0.4741,1.5814,-9.6598,2.0216,7.2075,172.5115,0.0000,0.0000,0.0000,0.0000,0.0000,break_time
82724,-0.2481,0.1723,-0.0012,0.4178,1.0373,-9.8435,2.0615,7.0868,172.6165,0.0000,0.0000,0.0000,0.0000,0.0000,break_time
82840,-0.1516,0.0307,0.0213,0.3819,1.0200,-9.7436,2.0786,6.9755,172.7184,0.0000,0.0000,0.0000,0.0000,0.0000,break_time
82956,-0.1356,0.0688,-0.0439,0.2747,1.2115,-9.7316,2.0313,6.9873,172.7206,0.0000,0.0000,0.0000,0.0000,0.0000,break_time
83072,-0.1958,0.0664,0.0125,0.3214,1.2708,-9.7418,2.0156,7.0314,172.6826,0.0000,0.0000,0.0000,0.0000,0.0000,break_time
83188,-0.2200,0.0693,0.0214,0.3514,1.2205,-9.7208,2.0194,7.0434,172.6700,0.0000,0.0000,0.0000,0.0000,0.0000,break_time
83304,-0.2259,0.0624,-0.0395,0.2945,1.2067,-9.7783,1.9886,7.0423,172.6796,0.0000,0.0000,0.0000,0.0000,0.0000,break_time
83420,-0.2671,0.0746,0.0274,0.1808,1.2049,-9.7459,1.8952,7.0428,172.7041,0.0000,0.0000,0.0000,0.0000,0.0000,break_time
83536,-0.1952,0.0394,0.0376,0.1891,1.2019,-9.7549,1.8159,7.0409,172.7264,0.0000,0.0000,0.0000,0.0000,0.0000,break_time
83652,-0.1566,0.0743,0.0256,0.3687,1.1900,-9.7418,1.8494,7.0327,172.7258,0.0000,0.0000,0.0000,0.0000,0.0000,break_time
83768,-0.2061,0.0608,-0.0393,0.3567,1.1720,-9.7699,1.8722,7.0130,172.7390,0.0000,0.0000,0.0000,0.0000,0.0000,break_time
83884,-0.1969,0.0862,0.0386,0.3777,1.2217,-9.7681,1.9048,7.0241,172.7197,0.0000,0.0000,0.0000,0.0000,0.0000,break_time
84000,-0.2065,0.0931,0.0119,0.2765,1.2785,-9.7148,1.8760,7.0711,172.6819,0.0000,0.0000,0.0000,0.0000,0.0000,break_time
84116,-0.2254,0.0792,0.0146,0.3119,1.2774,-9.7519,1.8700,7.1099,172.6459,0.0000,0.0000,0.0000,0.0000,0.0000,break_time
84232,-0.2189,0.0545,-0.0383,0.3597,1.2283,-9.7507,1.8927,7.1164,172.6337,0.0000,0.0000,0.0000,0.0000,0.0000,break_time
84348,-0.2129,0.0540,-0.0590,0.2658,1.1636,-9.7465,1.8585,7.0853,172.6725,0.0000,0.0000,0.0000,0.0000,0.0000,break_time
84464,-0.1808,0.0793,-0.0255,0.3334,1.1828,-9.7436,1.8672,7.0685,172.6866,0.0000,0.0000,0.0000,0.0000,0.0000,break_time
84580,-0.2075,0.0477,-0.0079,0.2257,1.2366,-9.7370,1.8122,7.0853,172.6843,0.0000,0.0000,0.0000,0.0000,0.0000,break_time
84696,-0.2327,0.0399,0.0244,0.3831,1.2205,-9.7250,1.8548,7.0916,172.6675,0.0000,0.0000,0.0000,0.0000,0.0000,break_time
84812,-0.1914,0.0818,0.0125,0.3131,1.2522,-9.6951,1.8527,7.1179,172.6425,0.0000,0.0000,0.0000,0.0000,0.0000,break_time
84928,-0.2192,0.0847,0.0113,0.3424,1.2426,-9.7555,1.8669,7.1316,172.6256,0.0000,0.0000,0.0000,0.0000,0.0000,break_time
85044,-0.2098,0.0686,0.0083,0.3172,1.2223,-9.7609,1.8649,7.1318,172.6259,0.0000,0.0000,0.0000,0.0000,0.0000,break_time
85160,-0.2260,0.0753,-0.0349,0.3837,1.1702,-9.7340,1.9025,7.1037,172.6434,0.0000,0.0000,0.0000,0.0000,0.0000,break_time
85276,-0.1870,0.0481,-0.0465,0.3400,1.2313,-9.7172,1.9110,7.1150,172.6303,0.0000,0.0000,0.0000,0.0000,0.0000,break_time
85392,-0.2074,0.0458,0.0228,0.2472,1.2283,-9.7747,1.8635,7.1195,172.6382,0.0000,0.0000,0.0000,0.0000,0.0000,break_time
85508,-0.2198,0.0444,0.0063,0.4124,1.1953,-9.7681,1.9173,7.1046,172.6387,0.0000,0.0000,0.0000,0.0000,0.0000,break_time
85624,-0.1828,0.0682,0.0530,0.2640,1.2307,-9.7561,1.8793,7.1129,172.6406,0.0000,0.0000,0.0000,0.0000,0.0000,nothing
85740,-0.1839,0.0852,-0.0019,0.3202,1.2043,-9.7382,1.8783,7.1062,172.6473,0.0000,0.0000,0.0000,0.0000,0.0000,nothing
85856,-0.2144,0.0455,-0.0255,0.3089,1.2432,-9.7334,1.8707,7.1231,172.6329,0.0000,0.0000,0.0000,0.0000,0.0000,nothing
85972,-0.1258,0.0369,0.0443,0.4208,1.1618,-9.7459,1.9292,7.0900,172.6496,0.0000,0.0000,0.0000,0.0000,0.0000,nothing
86088,-0.1254,0.1411,-0.0173,0.5573,1.3839,-9.8722,2.0581,7.1792,172.5287,0.0000,0.0000,0.0000,0.0000,0.0000,หนึ่ง
86204,-0.2658,0.1366,-0.0206,0.1820,1.3719,-9.6987,1.9591,7.2660,172.4718,0.0000,0.0000,0.0000,0.0000,0.0000,หนึ่ง
86320,-0.2713,0.1024,0.0290,0.3550,1.2097,-9.7884,1.9693,7.2434,172.4909,0.0000,0.0000,0.0000,0.0000,0.0000,หนึ่ง
86436,-0.2346,0.1093,0.0390,0.3238,1.2762,-9.7465,1.9611,7.2646,172.4726,0.0000,0.0000,0.0000,0.0000,0.0000,หนึ่ง
86552,-0.2837,0.1264,0.0404,0.3466,1.2839,-9.6957,1.9679,7.2919,172.4444,0.0000,0.0000,0.0000,0.0000,0.0000,break_time
86668,-0.2746,0.0724,-0.0487,0.2334,1.0661,-9.7651,1.9073,7.1857,172.5629,0.0000,0.0000,0.0000,0.0000,0.0000,break_time
86784,-0.1110,0.0330,-0.0048,0.2664,1.0732,-9.7489,1.8722,7.0953,172.6594,0.0000,0.0000,0.0000,0.0000,0.0000,break_time
86900,-0.1301,0.0464,0.0200,0.2741,1.2193,-9.7430,1.8450,7.0988,172.6630,0.0000,0.0000,0.0000,0.0000,0.0000,break_time
87016,-0.1919,0.0750,0.0203,0.3705,1.2432,-9.7244,1.8769,7.1169,172.6373,0.0000,0.0000,0.0000,0.0000,0.0000,break_time
87132,-0.1861,0.0553,-0.0780,0.3502,1.2349,-9.7322,1.8936,7.1279,172.6223,0.0000,0.0000,0.0000,0.0000,0.0000,break_time
87248,-0.2259,0.0660,0.0244,0.3113,1.2444,-9.7118,1.8863,7.1449,172.6078,0.0000,0.0000,0.0000,0.0000,0.0000,break_time
87364,-0.1674,0.0461,0.0435,0.3232,1.1217,-9.7352,1.8866,7.0874,172.6633,0.0000,0.0000,0.0000,0.0000,0.0000,break_time
87480,-0.1331,0.0806,-0.0574,0.3310,1.2462,-9.7292,1.8912,7.1082,172.6420,0.0000,0.0000,0.0000,0.0000,0.0000,break_time
87596,-0.1958,0.0736,0.0721,0.3609,1.3701,-9.7400,1.9123,7.1977,172.5500,0.0000,0.0000,0.0000,0.0000,0.0000,break_time
87712,-0.2474,0.0519,0.0136,0.2406,1.2582,-9.7292,1.8617,7.2146,172.5466,0.0000,0.0000,0.0000,0.0000,0.0000,break_time
87828,-0.2210,0.0905,-0.0189,0.3831,1.1756,-9.7358,1.8992,7.1812,172.5694,0.0000,0.0000,0.0000,0.0000,0.0000,break_time
87944,-0.1830,0.0593,0.0240,0.3148,1.2061,-9.7771,1.8923,7.1659,172.5859,0.0000,0.0000,0.0000,0.0000,0.0000,break_time
88060,-0.1864,0.0716,0.0345,0.3298,1.2127,-9.7370,1.8956,7.1589,172.5919,0.0000,0.0000,0.0000,0.0000,0.0000,break_time
88176,-0.2283,0.0630,-0.0431,0.3406,1.2157,-9.7436,1.9047,7.1538,172.5945,0.0000,0.0000,0.0000,0.0000,0.0000,break_time
88292,-0.2004,0.0808,0.0487,0.2652,1.1756,-9.7567,1.8687,7.1252,172.6314,0.0000,0.0000,0.0000,0.0000,0.0000,break_time
88408,-0.1515,0.0695,0.0020,0.3532,1.1654,-9.7783,1.8873,7.0918,172.6589,0.0000,0.0000,0.0000,0.0000,0.0000,break_time
88524,-0.2356,0.0540,0.0174,0.3220,1.2139,-9.7477,1.8864,7.0921,172.6588,0.0000,0.0000,0.0000,0.0000,0.0000,break_time
88640,-0.1716,0.0466,0.0964,0.3681,1.2013,-9.7011,1.9133,7.0883,172.6554,0.0000,0.0000,0.0000,0.0000,0.0000,break_time
88756,-0.1748,0.0776,0.0068,0.3125,1.2414,-9.7298,1.9044,7.1062,172.6405,0.0000,0.0000,0.0000,0.0000,0.0000,break_time
88872,-0.1944,0.0739,0.0922,0.3550,1.2504,-9.7238,1.9213,7.1279,172.6151,0.0000,0.0000,0.0000,0.0000,0.0000,break_time
