timestamp_ms,gyro_x,gyro_y,gyro_z,accel_x,accel_y,accel_z,roll,pitch,yaw,adc0,adc1,adc2,adc3,adc4,Label
103604,-0.2020,0.0807,-0.0207,0.3208,1.2378,-9.7579,1.8044,7.1771,172.5972,0.0000,0.0000,0.0000,0.0000,0.0000,nothing
103720,-0.1815,0.0766,-0.0115,0.3364,1.2361,-9.7477,1.8200,7.1817,172.5889,0.0000,0.0000,0.0000,0.0000,0.0000,nothing
103836,-0.2305,0.0361,0.0158,0.3406,1.2690,-9.7555,1.8363,7.2042,172.5630,0.0000,0.0000,0.0000,0.0000,0.0000,nothing
103952,-0.2149,0.0725,0.0342,0.2921,1.2049,-9.7376,1.8232,7.1889,172.5811,0.0000,0.0000,0.0000,0.0000,0.0000,nothing
104068,-0.1944,0.0919,0.0742,0.3274,1.1870,-9.7603,1.8316,7.1630,172.6042,0.0000,0.0000,0.0000,0.0000,0.0000,nothing
104184,-0.1981,0.0859,-0.0279,0.3292,1.2091,-9.7615,1.8402,7.1524,172.6123,0.0000,0.0000,0.0000,0.0000,0.0000,nothing
104300,-0.1934,0.0649,0.0451,0.2933,1.2396,-9.7370,1.8273,7.1624,172.6059,0.0000,0.0000,0.0000,0.0000,0.0000,nothing
104416,-0.1594,0.0529,0.0052,0.3556,1.1768,-9.7040,1.8528,7.1372,172.6238,0.0000,0.0000,0.0000,0.0000,0.0000,nothing
104532,-0.2369,0.0725,0.0500,0.2951,1.2720,-9.7459,1.8395,7.1668,172.5985,0.0000,0.0000,0.0000,0.0000,0.0000,nothing
104648,-0.1955,0.0568,0.0799,0.2664,1.2809,-9.7765,1.8102,7.1964,172.5771,0.0000,0.0000,0.0000,0.0000,0.0000,หนึ่ง
104764,-0.3530,0.0496,0.0559,0.4178,1.2301,-9.7765,1.8721,7.1932,172.5647,0.0000,0.0000,0.0000,0.0000,0.0000,หนึ่ง
104880,-0.2127,0.0300,-0.0560,0.2682,1.0565,-9.7190,1.8422,7.0946,172.6678,0.0000,0.0000,0.0000,0.0000,0.0000,หนึ่ง
104996,-0.1228,0.0532,0.0037,0.2376,1.1528,-9.7328,1.7970,7.0605,172.7121,0.0000,0.0000,0.0000,0.0000,0.0000,หนึ่ง
105112,-0.1733,0.0560,0.0267,0.3023,1.2468,-9.7465,1.7935,7.0831,172.6911,0.0000,0.0000,0.0000,0.0000,0.0000,หนึ่ง
105228,-0.1970,0.0705,0.0155,0.3292,1.2522,-9.6891,1.8071,7.1107,172.6610,0.0000,0.0000,0.0000,0.0000,0.0000,หนึ่ง
105344,-0.3373,0.1305,0.1095,0.2753,1.2630,-9.6975,1.7877,7.1412,172.6361,0.0000,0.0000,0.0000,0.0000,0.0000,break_time
105460,-0.2211,0.0375,-0.0941,0.1119,1.2666,-9.7376,1.6742,7.1683,172.6368,0.0000,0.0000,0.0000,0.0000,0.0000,break_time
105576,-0.1557,0.0928,0.0161,0.3544,1.2271,-9.6723,1.7147,7.1740,172.6218,0.0000,0.0000,0.0000,0.0000,0.0000,break_time
105692,-0.2042,0.0648,0.0405,0.3412,1.2570,-9.7322,1.7424,7.1921,172.5977,0.0000,0.0000,0.0000,0.0000,0.0000,break_time
105808,-0.2001,0.0897,0.0502,0.3226,1.2426,-9.7406,1.7564,7.1995,172.5871,0.0000,0.0000,0.0000,0.0000,0.0000,break_time
105924,-0.2029,0.0703,-0.0143,0.2945,1.2157,-9.7268,1.7528,7.1917,172.5956,0.0000,0.0000,0.0000,0.0000,0.0000,break_time
106040,-0.1838,0.0537,-0.0068,0.3226,1.2019,-9.7471,1.7657,7.1751,172.6086,0.0000,0.0000,0.0000,0.0000,0.0000,break_time
106156,-0.1622,0.0538,0.0322,0.3113,1.2007,-9.7675,1.7703,7.1580,172.6241,0.0000,0.0000,0.0000,0.0000,0.0000,break_time
106272,-0.1695,0.0451,0.0184,0.3286,1.2115,-9.7573,1.7847,7.1496,172.6288,0.0000,0.0000,0.0000,0.0000,0.0000,break_time
106388,-0.1959,0.0642,0.0829,0.2580,1.2528,-9.7561,1.7564,7.1662,172.6195,0.0000,0.0000,0.0000,0.0000,0.0000,break_time
106504,-0.1877,0.0732,0.0245,0.4405,1.2193,-9.7184,1.8382,7.1640,172.6015,0.0000,0.0000,0.0000,0.0000,0.0000,break_time
106620,-0.2075,0.0649,0.0125,0.2550,1.2414,-9.7094,1.8037,7.1760,172.5985,0.0000,0.0000,0.0000,0.0000,0.0000,break_time
106736,-0.2105,0.0661,0.0316,0.3184,1.2456,-9.7447,1.8090,7.1864,172.5871,0.0000,0.0000,0.0000,0.0000,0.0000,break_time
106852,-0.2105,0.0601,0.0680,0.3382,1.2283,-9.7232,1.8257,7.1873,172.5820,0.0000,0.0000,0.0000,0.0000,0.0000,break_time
106968,-0.2200,0.0648,0.0447,0.3358,1.2594,-9.7453,1.8389,7.2045,172.5621,0.0000,0.0000,0.0000,0.0000,0.0000,break_time
107084,-0.2185,0.0732,0.0390,0.2801,1.1942,-9.7424,1.8185,7.1826,172.5884,0.0000,0.0000,0.0000,0.0000,0.0000,break_time
107200,-0.1720,0.0682,0.0041,0.3795,1.2714,-9.7436,1.8579,7.2072,172.5547,0.0000,0.0000,0.0000,0.0000,0.0000,break_time
107316,-0.2086,0.0746,0.0282,0.3029,1.2929,-9.7274,1.8489,7.2433,172.5220,0.0000,0.0000,0.0000,0.0000,0.0000,break_time
107432,-0.2348,0.0772,-0.0300,0.1730,1.2869,-9.6747,1.7660,7.2764,172.5101,0.0000,0.0000,0.0000,0.0000,0.0000,break_time
107548,-0.1324,0.1006,0.0399,0.3603,1.1660,-9.7196,1.8001,7.2325,172.5446,0.0000,0.0000,0.0000,0.0000,0.0000,break_time
107664,-0.1806,0.1027,0.0000,0.3562,1.2738,-9.7298,1.8280,7.2546,172.5163,0.0000,0.0000,0.0000,0.0000,0.0000,break_time
107780,-0.2146,0.0879,0.0333,0.2885,1.2654,-9.7292,1.8136,7.2698,172.5050,0.0000,0.0000,0.0000,0.0000,0.0000,break_time
107896,-0.2247,0.0597,0.0089,0.2574,1.2624,-9.7208,1.7827,7.2825,172.5001,0.0000,0.0000,0.0000,0.0000,0.0000,break_time
108012,-0.2301,0.0690,0.0239,0.3466,1.2181,-9.7340,1.8068,7.2671,172.5093,0.0000,0.0000,0.0000,0.0000,0.0000,break_time
108128,-0.2016,0.0759,-0.0134,0.2927,1.2289,-9.7477,1.7967,7.2586,172.5200,0.0000,0.0000,0.0000,0.0000,0.0000,break_time
108244,-0.1903,0.0735,0.0274,0.2945,1.2133,-9.7256,1.7892,7.2435,172.5365,0.0000,0.0000,0.0000,0.0000,0.0000,break_time
108360,-0.2015,0.0386,0.0258,0.3256,1.2085,-9.7334,1.8004,7.2266,172.5502,0.0000,0.0000,0.0000,0.0000,0.0000,nothing
108476,-0.1815,0.0671,-0.0045,0.2688,1.2349,-9.7376,1.7772,7.2264,172.5560,0.0000,0.0000,0.0000,0.0000,0.0000,nothing
108592,-0.2206,0.0682,0.0676,0.3992,1.2235,-9.7304,1.8326,7.2198,172.5488,0.0000,0.0000,0.0000,0.0000,0.0000,nothing
108708,-0.3344,0.1215,0.0453,0.2658,1.2744,-9.6747,1.8055,7.2478,172.5283,0.0000,0.0000,0.0000,0.0000,0.0000,หนึ่ง
108824,-0.2627,0.1186,-0.0282,0.0198,1.4527,-9.7268,1.6361,7.3731,172.4456,0.0000,0.0000,0.0000,0.0000,0.0000,หนึ่ง
108940,-0.2447,0.1296,0.0185,0.3334,1.1193,-9.7352,1.6673,7.2913,172.5184,0.0000,0.0000,0.0000,0.0000,0.0000,หนึ่ง
109056,-0.1587,0.0783,0.0211,0.1233,1.1068,-9.7765,1.5722,7.2079,172.6209,0.0000,0.0000,0.0000,0.0000,0.0000,หนึ่ง
109172,-0.1620,0.0414,-0.0153,0.2496,1.2636,-9.7789,1.5599,7.2232,172.6085,0.0000,0.0000,0.0000,0.0000,0.0000,break_time
109288,-0.2123,0.0538,-0.0360,0.2927,1.2528,-9.7292,1.5748,7.2343,172.5945,0.0000,0.0000,0.0000,0.0000,0.0000,break_time
109404,-0.1944,0.0807,-0.0402,0.4136,1.2001,-9.7495,1.6586,7.2121,172.5977,0.0000,0.0000,0.0000,0.0000,0.0000,break_time
109520,-0.2174,0.0658,0.0139,0.3017,1.2600,-9.7226,1.6689,7.2289,172.5789,0.0000,0.0000,0.0000,0.0000,0.0000,break_time
109636,-0.2050,0.0589,0.0155,0.3137,1.2277,-9.7430,1.6850,7.2238,172.5802,0.0000,0.0000,0.0000,0.0000,0.0000,break_time
109752,-0.1977,0.0866,-0.0260,0.3023,1.2175,-9.7364,1.6930,7.2139,172.5881,0.0000,0.0000,0.0000,0.0000,0.0000,break_time
109868,-0.2097,0.0518,0.0344,0.2712,1.1852,-9.7663,1.6815,7.1841,172.6198,0.0000,0.0000,0.0000,0.0000,0.0000,break_time
109984,-0.1810,0.0806,0.0225,0.3059,1.1798,-9.7555,1.6917,7.1548,172.6458,0.0000,0.0000,0.0000,0.0000,0.0000,break_time
110100,-0.2147,0.0454,0.0189,0.2759,1.1918,-9.7621,1.6832,7.1351,172.6671,0.0000,0.0000,0.0000,0.0000,0.0000,break_time
110216,-0.1820,0.0728,0.0773,0.3166,1.2636,-9.7226,1.6998,7.1616,172.6373,0.0000,0.0000,0.0000,0.0000,0.0000,break_time
110332,-0.2112,0.0604,0.0015,0.3005,1.2265,-9.7328,1.7053,7.1634,172.6344,0.0000,0.0000,0.0000,0.0000,0.0000,break_time
110448,-0.1746,0.0694,-0.0007,0.3424,1.2408,-9.7591,1.7342,7.1712,172.6199,0.0000,0.0000,0.0000,0.0000,0.0000,break_time
110564,-0.1849,0.0643,-0.0134,0.3508,1.2349,-9.7238,1.7656,7.1774,172.6064,0.0000,0.0000,0.0000,0.0000,0.0000,break_time
110680,-0.2248,0.0792,-0.0102,0.2676,1.2438,-9.7160,1.7456,7.1889,172.6001,0.0000,0.0000,0.0000,0.0000,0.0000,break_time
110796,-0.1767,0.0808,-0.0185,0.2999,1.1834,-9.7657,1.7456,7.1605,172.6276,0.0000,0.0000,0.0000,0.0000,0.0000,break_time
110912,-0.1580,0.0462,0.0484,0.3573,1.2097,-9.7639,1.7792,7.1503,172.6295,0.0000,0.0000,0.0000,0.0000,0.0000,break_time
111028,-0.2112,0.0382,-0.0211,0.3053,1.2313,-9.7442,1.7793,7.1551,172.6248,0.0000,0.0000,0.0000,0.0000,0.0000,break_time
111144,-0.2082,0.0510,0.0350,0.3119,1.2067,-9.7537,1.7831,7.1445,172.6341,0.0000,0.0000,0.0000,0.0000,0.0000,break_time
111260,-0.1719,0.0502,-0.0273,0.2795,1.2115,-9.7585,1.7676,7.1374,172.6447,0.0000,0.0000,0.0000,0.0000,0.0000,break_time
111376,-0.1877,0.0761,0.0177,0.3400,1.2055,-9.7298,1.7894,7.1296,172.6470,0.0000,0.0000,0.0000,0.0000,0.0000,break_time
111492,-0.2168,0.0743,0.0421,0.3454,1.2462,-9.7735,1.8113,7.1429,172.6287,0.0000,0.0000,0.0000,0.0000,0.0000,break_time
111608,-0.2053,0.0799,-0.0240,0.2233,1.2127,-9.7214,1.7609,7.1395,172.6443,0.0000,0.0000,0.0000,0.0000,0.0000,break_time
111724,-0.2244,0.0667,-0.0138,0.3514,1.1936,-9.7549,1.7896,7.1227,172.6537,0.0000,0.0000,0.0000,0.0000,0.0000,break_time
111840,-0.2151,0.0511,0.0470,0.3430,1.2175,-9.7364,1.8108,7.1227,172.6484,0.0000,0.0000,0.0000,0.0000,0.0000,break_time
111956,-0.1887,0.0713,-0.0154,0.3430,1.2175,-9.7537,1.8296,7.1215,172.6449,0.0000,0.0000,0.0000,0.0000,0.0000,break_time
112072,-0.2005,0.0699,0.0072,0.2496,1.2037,-9.7166,1.7928,7.1154,172.6600,0.0000,0.0000,0.0000,0.0000,0.0000,break_time
112188,-0.1828,0.0421,-0.0064,0.3717,1.1846,-9.7729,1.8298,7.0944,172.6711,0.0000,0.0000,0.0000,0.0000,0.0000,nothing
112304,-0.1734,0.0650,-0.0509,0.3370,1.2289,-9.7585,1.8431,7.1023,172.6601,0.0000,0.0000,0.0000,0.0000,0.0000,nothing
112420,-0.2319,0.0630,0.0204,0.3376,1.2672,-9.7292,1.8558,7.1337,172.6264,0.0000,0.0000,0.0000,0.0000,0.0000,nothing
112536,-0.2243,0.0654,0.0209,0.3220,1.1846,-9.7507,1.8580,7.1126,172.6463,0.0000,0.0000,0.0000,0.0000,0.0000,nothing
112652,-0.1868,0.0556,-0.0149,0.3214,1.1918,-9.7184,1.8603,7.1001,172.6578,0.0000,0.0000,0.0000,0.0000,0.0000,nothing
112768,-0.1876,0.0641,0.0271,0.3214,1.2438,-9.7471,1.8616,7.1169,172.6412,0.0000,0.0000,0.0000,0.0000,0.0000,nothing
112884,-0.2166,0.0510,0.0207,0.2592,1.2355,-9.7430,1.8266,7.1277,172.6396,0.0000,0.0000,0.0000,0.0000,0.0000,nothing
113000,-0.2383,0.0761,-0.0052,0.3520,1.1738,-9.7094,1.8500,7.1039,172.6568,0.0000,0.0000,0.0000,0.0000,0.0000,nothing
113116,-0.1861,0.0586,0.0224,0.3190,1.2319,-9.7412,1.8511,7.1138,172.6469,0.0000,0.0000,0.0000,0.0000,0.0000,nothing
113232,-0.2184,0.0684,0.0277,0.3107,1.2241,-9.7501,1.8470,7.1177,172.6442,0.0000,0.0000,0.0000,0.0000,0.0000,nothing
113348,-0.1738,0.0185,0.0108,0.1449,1.2456,-9.7543,1.7466,7.1337,172.6535,0.0000,0.0000,0.0000,0.0000,0.0000,nothing
113464,-0.2065,0.0312,0.0053,0.3388,1.2510,-9.7244,1.7698,7.1529,172.6292,0.0000,0.0000,0.0000,0.0000,0.0000,nothing
113580,-0.2157,0.0611,-0.0434,0.2670,1.2654,-9.7376,1.7486,7.1778,172.6101,0.0000,0.0000,0.0000,0.0000,0.0000,nothing
113696,-0.2110,0.0753,-0.0281,0.3298,1.2217,-9.7765,1.7655,7.1719,172.6118,0.0000,0.0000,0.0000,0.0000,0.0000,nothing
113812,-0.2108,0.0680,0.0134,0.2712,1.2378,-9.7088,1.7477,7.1809,172.6073,0.0000,0.0000,0.0000,0.0000,0.0000,nothing
113928,-0.2149,0.0596,0.0200,0.2981,1.2025,-9.7226,1.7472,7.1676,172.6203,0.0000,0.0000,0.0000,0.0000,0.0000,nothing
114044,-0.2125,0.0887,-0.0195,0.2759,1.2169,-9.7310,1.7337,7.1634,172.6277,0.0000,0.0000,0.0000,0.0000,0.0000,nothing
114160,-0.1932,0.0885,0.0284,0.3364,1.1702,-9.7382,1.7567,7.1319,172.6527,0.0000,0.0000,0.0000,0.0000,0.0000,nothing
114276,-0.2170,0.0652,-0.0022,0.3262,1.2145,-9.7651,1.7710,7.1273,172.6538,0.0000,0.0000,0.0000,0.0000,0.0000,nothing
114392,-0.1877,0.0571,0.0112,0.2376,1.2205,-9.7346,1.7327,7.1290,172.6614,0.0000,0.0000,0.0000,0.0000,0.0000,nothing
114508,-0.1534,0.1013,-0.0428,0.3508,1.2648,-9.7537,1.7637,7.1545,172.6291,0.0000,0.0000,0.0000,0.0000,0.0000,nothing
114624,-0.2046,0.0804,0.0145,0.3412,1.2492,-9.7226,1.7866,7.1707,172.6078,0.0000,0.0000,0.0000,0.0000,0.0000,nothing
114740,-0.1907,0.0594,-0.0169,0.3484,1.2289,-9.7591,1.8109,7.1709,172.6016,0.0000,0.0000,0.0000,0.0000,0.0000,nothing
114856,-0.2020,0.0521,0.0034,0.2993,1.1983,-9.7304,1.8046,7.1556,172.6180,0.0000,0.0000,0.0000,0.0000,0.0000,nothing
114972,-0.1746,0.1016,0.0098,0.2568,1.2295,-9.7699,1.7735,7.1571,172.6243,0.0000,0.0000,0.0000,0.0000,0.0000,nothing
115088,-0.1970,0.0635,0.0225,0.3101,1.2522,-9.7034,1.7776,7.1763,172.6046,0.0000,0.0000,0.0000,0.0000,0.0000,nothing
115204,-0.2194,0.0544,0.0409,0.3208,1.2187,-9.7561,1.7868,7.1703,172.6082,0.0000,0.0000,0.0000,0.0000,0.0000,nothing
115320,-0.2065,0.0840,-0.0259,0.3071,1.1804,-9.7663,1.7869,7.1420,172.6356,0.0000,0.0000,0.0000,0.0000,0.0000,nothing
115436,-0.2024,0.1012,0.0451,0.3262,1.1882,-9.7274,1.7988,7.1238,172.6503,0.0000,0.0000,0.0000,0.0000,0.0000,nothing
115552,-0.2065,0.0631,0.0184,0.3550,1.2241,-9.7346,1.8261,7.1277,172.6397,0.0000,0.0000,0.0000,0.0000,0.0000,nothing
115668,-0.2072,0.0669,-0.0284,0.3035,1.1397,-9.7621,1.8204,7.0805,172.6870,0.0000,0.0000,0.0000,0.0000,0.0000,nothing
115784,-0.1595,0.0727,0.0104,0.3376,1.2474,-9.7400,1.8353,7.1018,172.6625,0.0000,0.0000,0.0000,0.0000,0.0000,nothing
115900,-0.1825,0.0814,0.0042,0.3148,1.1930,-9.7447,1.8354,7.0892,172.6747,0.0000,0.0000,0.0000,0.0000,0.0000,nothing
116016,-0.1849,0.0788,-0.0203,0.2993,1.0774,-9.7615,1.8264,7.0098,172.7538,0.0000,0.0000,0.0000,0.0000,0.0000,nothing
116132,-0.1903,0.0555,0.0104,0.3370,1.1870,-9.7100,1.8411,7.0054,172.7544,0.0000,0.0000,0.0000,0.0000,0.0000,nothing
116248,-0.2052,0.0499,0.0588,0.2939,1.2313,-9.7489,1.8283,7.0244,172.7393,0.0000,0.0000,0.0000,0.0000,0.0000,nothing
116364,-0.1733,0.0759,0.0740,0.3340,1.2073,-9.7118,1.8409,7.0301,172.7305,0.0000,0.0000,0.0000,0.0000,0.0000,nothing
116480,-0.2056,0.0706,-0.0269,0.3202,1.2319,-9.7633,1.8432,7.0459,172.7146,0.0000,0.0000,0.0000,0.0000,0.0000,nothing
116596,-0.2127,0.0519,0.0469,0.3238,1.2486,-9.7340,1.8478,7.0719,172.6883,0.0000,0.0000,0.0000,0.0000,0.0000,nothing
116712,-0.1727,0.0890,0.0049,0.2502,1.1858,-9.7603,1.8088,7.0571,172.7124,0.0000,0.0000,0.0000,0.0000,0.0000,nothing
116828,-0.2041,0.0833,0.0078,0.2807,1.2366,-9.7477,1.7915,7.0742,172.7003,0.0000,0.0000,0.0000,0.0000,0.0000,nothing
116944,-0.2342,0.0683,0.0260,0.3418,1.1936,-9.7418,1.8118,7.0648,172.7042,0.0000,0.0000,0.0000,0.0000,0.0000,nothing
117060,-0.1866,0.0793,0.0237,0.2664,1.2313,-9.7531,1.7858,7.0776,172.6983,0.0000,0.0000,0.0000,0.0000,0.0000,nothing
117176,-0.2108,0.0935,0.0149,0.3154,1.2055,-9.7190,1.7917,7.0766,172.6979,0.0000,0.0000,0.0000,0.0000,0.0000,nothing
117292,-0.1951,0.0680,0.0124,0.3154,1.2037,-9.7693,1.7961,7.0710,172.7022,0.0000,0.0000,0.0000,0.0000,0.0000,nothing
117408,-0.2003,0.0649,-0.0083,0.3322,1.2007,-9.7298,1.8106,7.0670,172.7025,0.0000,0.0000,0.0000,0.0000,0.0000,nothing
117524,-0.2099,0.1013,-0.0115,0.3160,1.2169,-9.7765,1.8133,7.0694,172.6994,0.0000,0.0000,0.0000,0.0000,0.0000,nothing
117640,-0.2106,0.0509,0.0098,0.3226,1.1786,-9.7537,1.8200,7.0511,172.7155,0.0000,0.0000,0.0000,0.0000,0.0000,nothing
117756,-0.2037,0.0608,0.0294,0.3388,1.1959,-9.7358,1.8358,7.0459,172.7165,0.0000,0.0000,0.0000,0.0000,0.0000,nothing
117872,-0.2049,0.0630,0.0464,0.2789,1.2199,-9.7376,1.8151,7.0551,172.7129,0.0000,0.0000,0.0000,0.0000,0.0000,nothing
117988,-0.2136,0.0822,0.0155,0.3615,1.2456,-9.7244,1.8447,7.0790,172.6822,0.0000,0.0000,0.0000,0.0000,0.0000,nothing
118104,-0.2303,0.0796,0.0168,0.2885,1.2175,-9.7926,1.8276,7.0795,172.6861,0.0000,0.0000,0.0000,0.0000,0.0000,nothing
118220,-0.2132,0.0904,0.0166,0.4561,1.1540,-9.7675,1.9105,7.0447,172.6983,0.0000,0.0000,0.0000,0.0000,0.0000,nothing
118336,-0.2153,0.0742,-0.0145,0.2945,1.1642,-9.7525,1.8912,7.0207,172.7266,0.0000,0.0000,0.0000,0.0000,0.0000,nothing
118452,-0.1896,0.0773,-0.0222,0.3310,1.2211,-9.7430,1.8952,7.0326,172.7141,0.0000,0.0000,0.0000,0.0000,0.0000,nothing
118568,-0.1929,0.0333,0.0337,0.2993,1.2211,-9.7406,1.8803,7.0435,172.7074,0.0000,0.0000,0.0000,0.0000,0.0000,nothing
118684,-0.2199,0.0274,0.0184,0.3759,1.2301,-9.7256,1.9118,7.0594,172.6837,0.0000,0.0000,0.0000,0.0000,0.0000,nothing
118800,-0.2229,0.0305,0.0033,0.2915,1.2055,-9.7501,1.8906,7.0580,172.6907,0.0000,0.0000,0.0000,0.0000,0.0000,nothing
118916,-0.2116,0.0461,0.0564,0.3454,1.1965,-9.7190,1.9035,7.0537,172.6915,0.0000,0.0000,0.0000,0.0000,0.0000,nothing
119032,-0.2293,0.0518,0.0217,0.2987,1.2283,-9.7531,1.8872,7.0657,172.6841,0.0000,0.0000,0.0000,0.0000,0.0000,nothing
119148,-0.2065,0.0491,-0.0383,0.3717,1.1684,-9.7549,1.9151,7.0417,172.7000,0.0000,0.0000,0.0000,0.0000,0.0000,nothing
119264,-0.2165,0.0773,0.0046,0.2969,1.2582,-9.7406,1.8968,7.0732,172.6744,0.0000,0.0000,0.0000,0.0000,0.0000,nothing
119380,-0.1787,0.0725,0.0038,0.4130,1.1499,-9.7034,1.9489,7.0412,172.6914,0.0000,0.0000,0.0000,0.0000,0.0000,nothing
119496,-0.2067,0.0717,-0.0151,0.2963,1.2217,-9.7447,1.9268,7.0514,172.6875,0.0000,0.0000,0.0000,0.0000,0.0000,nothing
119612,-0.1969,0.0712,-0.0189,0.2376,1.2319,-9.7573,1.8725,7.0656,172.6880,0.0000,0.0000,0.0000,0.0000,0.0000,nothing
119728,-0.1854,0.0509,-0.0094,0.3669,1.2067,-9.7639,1.8989,7.0631,172.6836,0.0000,0.0000,0.0000,0.0000,0.0000,nothing
119844,-0.1840,0.0390,-0.0020,0.3621,1.2079,-9.7609,1.9199,7.0618,172.6793,0.0000,0.0000,0.0000,0.0000,0.0000,nothing
119960,-0.1729,0.0275,0.0229,0.3160,1.2319,-9.7549,1.9120,7.0750,172.6687,0.0000,0.0000,0.0000,0.0000,0.0000,nothing
120076,-0.1907,0.0622,-0.0229,0.2556,1.2720,-9.7442,1.8698,7.1110,172.6449,0.0000,0.0000,0.0000,0.0000,0.0000,nothing
120192,-0.1823,0.0795,-0.0001,0.3184,1.2025,-9.7394,1.8687,7.1034,172.6525,0.0000,0.0000,0.0000,0.0000,0.0000,nothing
120308,-0.2324,0.0744,0.0413,0.2532,1.2803,-9.7376,1.8295,7.1419,172.6252,0.0000,0.0000,0.0000,0.0000,0.0000,nothing
120424,-0.2237,0.0751,0.0224,0.4088,1.2277,-9.7358,1.8851,7.1458,172.6073,0.0000,0.0000,0.0000,0.0000,0.0000,nothing
120540,-0.2420,0.0503,-0.0007,0.2269,1.2372,-9.7256,1.8292,7.1560,172.6115,0.0000,0.0000,0.0000,0.0000,0.0000,nothing
120656,-0.1922,0.0499,0.0635,0.2945,1.2390,-9.7406,1.8181,7.1650,172.6056,0.0000,0.0000,0.0000,0.0000,0.0000,nothing
120772,-0.1979,0.0552,-0.0029,0.3562,1.2205,-9.7394,1.8441,7.1623,172.6017,0.0000,0.0000,0.0000,0.0000,0.0000,nothing
120888,-0.1943,0.0369,0.0352,0.3705,1.1654,-9.7561,1.8757,7.1268,172.6281,0.0000,0.0000,0.0000,0.0000,0.0000,nothing
121004,-0.2258,0.0997,0.0593,0.2915,1.1834,-9.7370,1.8583,7.1068,172.6519,0.0000,0.0000,0.0000,0.0000,0.0000,nothing
121120,-0.1731,0.0635,-0.0172,0.2490,1.2390,-9.7262,1.8180,7.1218,172.6474,0.0000,0.0000,0.0000,0.0000,0.0000,nothing
121236,-0.1898,0.0419,-0.0218,0.3119,1.2337,-9.7639,1.8177,7.1294,172.6402,0.0000,0.0000,0.0000,0.0000,0.0000,nothing
121352,-0.2267,0.0571,-0.0327,0.2700,1.2702,-9.7328,1.7935,7.1597,172.6168,0.0000,0.0000,0.0000,0.0000,0.0000,nothing
121468,-0.2057,0.0800,-0.0234,0.2951,1.2343,-9.7639,1.7859,7.1639,172.6146,0.0000,0.0000,0.0000,0.0000,0.0000,nothing
121584,-0.2143,0.0523,-0.0228,0.3148,1.2103,-9.7579,1.7907,7.1542,172.6228,0.0000,0.0000,0.0000,0.0000,0.0000,nothing
121700,-0.2019,0.0663,0.0121,0.2574,1.2390,-9.7352,1.7619,7.1638,172.6205,0.0000,0.0000,0.0000,0.0000,0.0000,nothing
121816,-0.1979,0.0770,-0.0274,0.3466,1.1947,-9.7334,1.7881,7.1468,172.6306,0.0000,0.0000,0.0000,0.0000,0.0000,nothing
121932,-0.2014,0.0758,0.0338,0.2472,1.2193,-9.7280,1.7538,7.1463,172.6394,0.0000,0.0000,0.0000,0.0000,0.0000,nothing
122048,-0.1635,0.0577,-0.0390,0.2921,1.1930,-9.7184,1.7493,7.1313,172.6552,0.0000,0.0000,0.0000,0.0000,0.0000,nothing
122164,-0.2127,0.0922,0.0170,0.3663,1.2109,-9.7717,1.7875,7.1240,172.6529,0.0000,0.0000,0.0000,0.0000,0.0000,nothing
122280,-0.1939,0.0604,-0.0064,0.2879,1.2097,-9.7465,1.7767,7.1189,172.6606,0.0000,0.0000,0.0000,0.0000,0.0000,nothing
122396,-0.1891,0.0586,0.0023,0.3077,1.1971,-9.7603,1.7782,7.1059,172.6728,0.0000,0.0000,0.0000,0.0000,0.0000,nothing
122512,-0.1760,0.0596,-0.0087,0.3137,1.2211,-9.7274,1.7837,7.1104,172.6671,0.0000,0.0000,0.0000,0.0000,0.0000,nothing
122628,-0.1860,0.0709,0.0457,0.2712,1.2785,-9.7669,1.7629,7.1450,172.6385,0.0000,0.0000,0.0000,0.0000,0.0000,nothing
122744,-0.1921,0.0514,-0.0209,0.3053,1.2013,-9.7172,1.7652,7.1349,172.6478,0.0000,0.0000,0.0000,0.0000,0.0000,nothing
122860,-0.1872,0.0763,0.0498,0.3376,1.2289,-9.7519,1.7854,7.1392,172.6386,0.0000,0.0000,0.0000,0.0000,0.0000,nothing
122976,-0.2322,0.0923,0.0218,0.3095,1.1971,-9.7292,1.7877,7.1265,172.6505,0.0000,0.0000,0.0000,0.0000,0.0000,nothing
123092,-0.2042,0.0784,0.0241,0.2610,1.2121,-9.7430,1.7612,7.1227,172.6606,0.0000,0.0000,0.0000,0.0000,0.0000,nothing
123208,-0.1933,0.0639,-0.0194,0.3148,1.1971,-9.7519,1.7686,7.1100,172.6712,0.0000,0.0000,0.0000,0.0000,0.0000,nothing
123324,-0.2041,0.0637,0.0500,0.2831,1.2025,-9.7412,1.7570,7.1024,172.6813,0.0000,0.0000,0.0000,0.0000,0.0000,nothing
123440,-0.1551,0.0540,-0.0605,0.2532,1.2378,-9.7376,1.7291,7.1164,172.6745,0.0000,0.0000,0.0000,0.0000,0.0000,nothing
123556,-0.2166,0.0698,-0.0210,0.2903,1.2744,-9.7028,1.7261,7.1526,172.6400,0.0000,0.0000,0.0000,0.0000,0.0000,nothing
123672,-0.1795,0.0515,-0.0146,0.3232,1.2277,-9.7567,1.7418,7.1541,172.6348,0.0000,0.0000,0.0000,0.0000,0.0000,nothing
123788,-0.2067,0.0453,0.0228,0.2059,1.2355,-9.7495,1.6876,7.1607,172.6411,0.0000,0.0000,0.0000,0.0000,0.0000,nothing
123904,-0.2153,0.0538,0.0510,0.4160,1.2007,-9.7424,1.7615,7.1467,172.6372,0.0000,0.0000,0.0000,0.0000,0.0000,nothing
124020,-0.2029,0.0751,0.0160,0.3125,1.2660,-9.7346,1.7677,7.1726,172.6105,0.0000,0.0000,0.0000,0.0000,0.0000,nothing
124136,-0.2365,0.0847,-0.0030,0.3789,1.3318,-9.7717,1.8111,7.2312,172.5431,0.0000,0.0000,0.0000,0.0000,0.0000,nothing
124252,-0.2641,0.1044,0.0499,0.1622,1.2887,-9.7370,1.7247,7.2620,172.5339,0.0000,0.0000,0.0000,0.0000,0.0000,nothing
124368,-0.2654,0.0717,0.0503,0.3268,1.2067,-9.7603,1.7425,7.2402,172.5509,0.0000,0.0000,0.0000,0.0000,0.0000,nothing
124484,-0.2286,0.0641,-0.0564,0.3621,1.1642,-9.7471,1.7796,7.1968,172.5841,0.0000,0.0000,0.0000,0.0000,0.0000,nothing
124600,-0.1840,0.0708,0.0979,0.2364,1.2139,-9.7268,1.7399,7.1884,172.6019,0.0000,0.0000,0.0000,0.0000,0.0000,nothing
124716,-0.2356,0.0491,-0.0113,0.3065,1.2115,-9.7471,1.7446,7.1777,172.6112,0.0000,0.0000,0.0000,0.0000,0.0000,nothing
124832,-0.1943,0.0322,0.0072,0.3316,1.2031,-9.7214,1.7640,7.1651,172.6188,0.0000,0.0000,0.0000,0.0000,0.0000,nothing
124948,-0.1885,0.0656,0.0420,0.3735,1.2187,-9.7687,1.8050,7.1592,172.6145,0.0000,0.0000,0.0000,0.0000,0.0000,nothing
125064,-0.1873,0.0609,-0.0339,0.2592,1.2426,-9.7250,1.7760,7.1711,172.6100,0.0000,0.0000,0.0000,0.0000,0.0000,nothing
125180,-0.2071,0.0634,0.0337,0.3687,1.1768,-9.7645,1.8131,7.1407,172.6304,0.0000,0.0000,0.0000,0.0000,0.0000,nothing
125296,-0.1929,0.0650,-0.0057,0.3143,1.1971,-9.7094,1.8158,7.1292,172.6409,0.0000,0.0000,0.0000,0.0000,0.0000,nothing
125412,-0.2177,0.0419,-0.0304,0.2538,1.2193,-9.7136,1.7828,7.1315,172.6468,0.0000,0.0000,0.0000,0.0000,0.0000,nothing
125528,-0.2054,0.0862,0.0500,0.3562,1.1774,-9.7298,1.8126,7.1079,172.6623,0.0000,0.0000,0.0000,0.0000,0.0000,nothing
125644,-0.2029,0.0502,-0.0214,0.3538,1.2037,-9.7555,1.8375,7.1001,172.6637,0.0000,0.0000,0.0000,0.0000,0.0000,nothing
125760,-0.1881,0.0581,-0.0364,0.3011,1.2085,-9.7639,1.8290,7.0953,172.6704,0.0000,0.0000,0.0000,0.0000,0.0000,nothing
125876,-0.2046,0.0738,0.0608,0.2281,1.0858,-9.7184,1.7799,7.0234,172.7524,0.0000,0.0000,0.0000,0.0000,0.0000,nothing
125992,-0.2048,0.0638,-0.0104,0.3442,1.2169,-9.6783,1.8039,7.0372,172.7330,0.0000,0.0000,0.0000,0.0000,0.0000,nothing
126108,-0.1651,0.0747,0.0217,0.3292,1.1517,-9.7753,1.8151,7.0049,172.7615,0.0000,0.0000,0.0000,0.0000,0.0000,nothing
126224,-0.1974,0.0698,0.0210,0.3172,1.2163,-9.7585,1.8184,7.0145,172.7513,0.0000,0.0000,0.0000,0.0000,0.0000,nothing
126340,-0.1989,0.0534,0.0410,0.3053,1.2247,-9.7418,1.8146,7.0293,172.7380,0.0000,0.0000,0.0000,0.0000,0.0000,nothing
126456,-0.2076,0.0514,0.0229,0.2131,1.2618,-9.7645,1.7570,7.0626,172.7200,0.0000,0.0000,0.0000,0.0000,0.0000,nothing
126572,-0.2117,0.0544,0.0357,0.4238,1.2121,-9.7388,1.8286,7.0652,172.6997,0.0000,0.0000,0.0000,0.0000,0.0000,nothing
126688,-0.2417,0.0477,-0.0579,0.4058,1.2013,-9.7573,1.8822,7.0600,172.6909,0.0000,0.0000,0.0000,0.0000,0.0000,nothing
126804,-0.2164,0.0642,0.0657,0.2454,1.1894,-9.6891,1.8382,7.0536,172.7084,0.0000,0.0000,0.0000,0.0000,0.0000,nothing
126920,-0.1971,0.0538,-0.0045,0.2969,1.2127,-9.7292,1.8278,7.0585,172.7064,0.0000,0.0000,0.0000,0.0000,0.0000,nothing
127036,-0.2046,0.0750,0.0341,0.3867,1.2193,-9.7501,1.8705,7.0649,172.6893,0.0000,0.0000,0.0000,0.0000,0.0000,nothing
127152,-0.2169,0.0688,-0.0045,0.3502,1.2546,-9.7585,1.8873,7.0906,172.6600,0.0000,0.0000,0.0000,0.0000,0.0000,nothing
127268,-0.2188,0.0706,0.0371,0.2843,1.2277,-9.7328,1.8646,7.1002,172.6566,0.0000,0.0000,0.0000,0.0000,0.0000,nothing
127384,-0.2075,0.0428,0.0146,0.3412,1.2187,-9.7436,1.8771,7.1026,172.6510,0.0000,0.0000,0.0000,0.0000,0.0000,nothing
127500,-0.1731,0.0822,0.0335,0.3969,1.1953,-9.7358,1.9211,7.0918,172.6500,0.0000,0.0000,0.0000,0.0000,0.0000,nothing
127616,-0.2102,0.0447,0.0046,0.2083,1.3276,-9.7400,1.8503,7.1588,172.6035,0.0000,0.0000,0.0000,0.0000,0.0000,nothing
127732,-0.2289,0.0601,0.0311,0.3735,1.2594,-9.7777,1.8824,7.1764,172.5783,0.0000,0.0000,0.0000,0.0000,0.0000,nothing
127848,-0.2386,0.1117,-0.0638,0.2819,1.1534,-9.7926,1.8578,7.1301,172.6294,0.0000,0.0000,0.0000,0.0000,0.0000,nothing
127964,-0.2210,0.0503,-0.0196,0.1676,1.1762,-9.7322,1.7702,7.1062,172.6744,0.0000,0.0000,0.0000,0.0000,0.0000,nothing
128080,-0.1343,0.0589,0.0391,0.2197,1.0912,-9.8058,1.7206,7.0302,172.7603,0.0000,0.0000,0.0000,0.0000,0.0000,nothing
128196,-0.2174,0.0431,-0.0319,0.3687,1.2043,-9.7555,1.7634,7.0304,172.7496,0.0000,0.0000,0.0000,0.0000,0.0000,nothing
128312,-0.2059,0.1230,-0.0014,0.4519,1.2821,-9.6502,1.8521,7.0830,172.6764,0.0000,0.0000,0.0000,0.0000,0.0000,nothing
128428,-0.2380,0.0952,0.0119,0.4824,1.3629,-9.7884,1.9470,7.1671,172.5704,0.0000,0.0000,0.0000,0.0000,0.0000,nothing
128544,-0.2080,0.1007,-0.0360,0.2490,1.1876,-9.5831,1.9008,7.1568,172.5926,0.0000,0.0000,0.0000,0.0000,0.0000,nothing
128660,-0.2098,0.0521,0.0919,0.3095,1.1804,-9.7579,1.8910,7.1304,172.6206,0.0000,0.0000,0.0000,0.0000,0.0000,nothing
128776,-0.1677,0.0444,0.0544,0.3346,1.1247,-9.7872,1.8965,7.0723,172.6753,0.0000,0.0000,0.0000,0.0000,0.0000,nothing
128892,-0.1400,0.0203,-0.0464,0.6040,0.7536,-9.9201,2.0565,6.7953,172.8975,0.0000,0.0000,0.0000,0.0000,0.0000,nothing
129008,-0.1489,0.0642,0.0608,0.2293,1.3043,-10.0129,1.9791,6.8593,172.8582,0.0000,0.0000,0.0000,0.0000,0.0000,nothing
129124,-0.1363,0.0154,0.0424,0.1125,1.1337,-9.6472,1.8493,6.8440,172.9083,0.0000,0.0000,0.0000,0.0000,0.0000,nothing
129240,-0.0777,0.0836,-0.0045,0.4759,1.2145,-9.6783,1.9430,6.8738,172.8543,0.0000,0.0000,0.0000,0.0000,0.0000,nothing
129356,-0.1437,0.0588,-0.0113,0.3723,1.1115,-9.7843,1.9653,6.8341,172.8864,0.0000,0.0000,0.0000,0.0000,0.0000,nothing
129472,-0.0823,-0.0209,-0.0187,0.4555,1.0164,-9.8100,2.0334,6.7413,172.9560,0.0000,0.0000,0.0000,0.0000,0.0000,nothing
129588,-0.1513,0.0364,0.0243,0.1886,1.2384,-9.7657,1.9398,6.7899,172.9360,0.0000,0.0000,0.0000,0.0000,0.0000,nothing
129704,-0.2822,0.0871,0.0311,0.5998,1.0277,-9.7190,2.0963,6.7140,172.9635,0.0000,0.0000,0.0000,0.0000,0.0000,nothing
129820,-0.1434,-0.0188,-0.0532,0.1820,1.1008,-9.7747,1.9926,6.6851,173.0217,0.0000,0.0000,0.0000,0.0000,0.0000,nothing
129936,-0.0237,0.0149,0.0055,0.0970,1.2199,-9.6879,1.8512,6.7341,173.0138,0.0000,0.0000,0.0000,0.0000,0.0000,nothing
130052,-0.1697,0.0458,0.0319,0.4890,1.3516,-9.7100,1.9516,6.8521,172.8729,0.0000,0.0000,0.0000,0.0000,0.0000,nothing
130168,-0.2962,0.0757,0.0166,0.4789,1.2480,-9.7723,2.0350,6.8940,172.8092,0.0000,0.0000,0.0000,0.0000,0.0000,nothing
130284,-0.2545,0.0663,0.0710,0.2275,1.2109,-9.7489,1.9641,6.9125,172.8113,0.0000,0.0000,0.0000,0.0000,0.0000,nothing
130400,-0.2033,0.0499,-0.0158,0.2933,1.1235,-9.7376,1.9392,6.8792,172.8502,0.0000,0.0000,0.0000,0.0000,0.0000,nothing
130516,-0.1723,0.0375,0.0014,0.3418,1.1558,-9.7777,1.9441,6.8650,172.8625,0.0000,0.0000,0.0000,0.0000,0.0000,nothing
130632,-0.2134,0.0529,0.0354,0.3310,1.2163,-9.7244,1.9431,6.8910,172.8378,0.0000,0.0000,0.0000,0.0000,0.0000,nothing
130748,-0.1610,0.0356,-0.0174,0.3089,1.2205,-9.7717,1.9284,6.9135,172.8200,0.0000,0.0000,0.0000,0.0000,0.0000,nothing
130864,-0.2173,0.0414,0.0046,0.3729,1.2097,-9.7531,1.9529,6.9287,172.7987,0.0000,0.0000,0.0000,0.0000,0.0000,nothing
130980,-0.1847,0.0592,-0.0237,0.3017,1.1995,-9.7573,1.9334,6.9364,172.7967,0.0000,0.0000,0.0000,0.0000,0.0000,nothing
131096,-0.1954,0.0633,0.0264,0.3095,1.2193,-9.7160,1.9211,6.9576,172.7795,0.0000,0.0000,0.0000,0.0000,0.0000,nothing
131212,-0.1834,0.0495,-0.0260,0.2981,1.2193,-9.7370,1.9030,6.9753,172.7673,0.0000,0.0000,0.0000,0.0000,0.0000,nothing
131328,-0.2003,0.0783,0.0438,0.2771,1.2426,-9.7172,1.8748,7.0061,172.7449,0.0000,0.0000,0.0000,0.0000,0.0000,nothing
131444,-0.1887,0.0712,-0.0308,0.3328,1.2049,-9.7130,1.8820,7.0122,172.7372,0.0000,0.0000,0.0000,0.0000,0.0000,nothing
131560,-0.2144,0.0872,0.0409,0.3496,1.2271,-9.7406,1.8978,7.0286,172.7173,0.0000,0.0000,0.0000,0.0000,0.0000,nothing
131676,-0.2052,0.0616,-0.0485,0.3089,1.2361,-9.7214,1.8885,7.0499,172.6990,0.0000,0.0000,0.0000,0.0000,0.0000,nothing
131792,-0.2104,0.0579,0.0255,0.3460,1.2396,-9.7376,1.9015,7.0700,172.6762,0.0000,0.0000,0.0000,0.0000,0.0000,nothing
131908,-0.2001,0.0600,-0.0309,0.2610,1.2492,-9.7208,1.8640,7.0950,172.6618,0.0000,0.0000,0.0000,0.0000,0.0000,nothing
132024,-0.1879,0.0800,0.0198,0.3077,1.2283,-9.7262,1.8573,7.1049,172.6539,0.0000,0.0000,0.0000,0.0000,0.0000,nothing
132140,-0.2071,0.0438,-0.0015,0.3226,1.1588,-9.7477,1.8599,7.0720,172.6851,0.0000,0.0000,0.0000,0.0000,0.0000,nothing
132256,-0.1613,0.0810,0.0435,0.2813,1.2486,-9.7872,1.8371,7.0916,172.6719,0.0000,0.0000,0.0000,0.0000,0.0000,nothing
132372,-0.1481,0.0296,-0.0179,0.2598,1.2372,-9.7268,1.8052,7.1071,172.6649,0.0000,0.0000,0.0000,0.0000,0.0000,nothing
132488,-0.0853,0.0975,0.0177,0.4256,0.9589,-9.6813,1.8747,6.9627,172.7870,0.0000,0.0000,0.0000,0.0000,0.0000,nothing
132604,-0.2356,0.1445,-0.0038,0.3591,1.3073,-9.7843,1.8957,7.0273,172.7190,0.0000,0.0000,0.0000,0.0000,0.0000,nothing
132720,-0.1903,0.0701,-0.0491,0.2460,1.2498,-9.7334,1.8498,7.0561,172.7031,0.0000,0.0000,0.0000,0.0000,0.0000,nothing
132836,-0.2451,0.0863,0.0187,0.3867,1.2013,-9.7950,1.8894,7.0491,172.6996,0.0000,0.0000,0.0000,0.0000,0.0000,nothing
132952,-0.2079,0.0690,0.0274,0.3328,1.1660,-9.7447,1.8947,7.0262,172.7204,0.0000,0.0000,0.0000,0.0000,0.0000,nothing
133068,-0.2293,0.0664,0.0108,0.2700,1.2079,-9.7364,1.8628,7.0305,172.7245,0.0000,0.0000,0.0000,0.0000,0.0000,nothing
133184,-0.2315,0.0631,0.0209,0.3879,1.2061,-9.7459,1.9027,7.0324,172.7122,0.0000,0.0000,0.0000,0.0000,0.0000,nothing
133300,-0.2146,0.0721,0.0256,0.2442,1.2564,-9.7442,1.8548,7.0637,172.6944,0.0000,0.0000,0.0000,0.0000,0.0000,nothing
133416,-0.2105,0.0800,0.0406,0.3196,1.1588,-9.7208,1.8564,7.0368,172.7200,0.0000,0.0000,0.0000,0.0000,0.0000,nothing
133532,-0.1958,0.0638,-0.0241,0.3202,1.2085,-9.7902,1.8567,7.0365,172.7203,0.0000,0.0000,0.0000,0.0000,0.0000,nothing
133648,-0.2125,0.0618,0.0281,0.2777,1.2672,-9.7208,1.8333,7.0752,172.6888,0.0000,0.0000,0.0000,0.0000,0.0000,nothing
133764,-0.2116,0.0529,-0.0078,0.3885,1.1882,-9.7172,1.8771,7.0643,172.6881,0.0000,0.0000,0.0000,0.0000,0.0000,nothing
133880,-0.2041,0.0633,-0.0277,0.3316,1.1534,-9.7501,1.8829,7.0321,172.7177,0.0000,0.0000,0.0000,0.0000,0.0000,nothing
133996,-0.1481,0.0514,0.0211,0.3113,1.1858,-9.7507,1.8761,7.0219,172.7293,0.0000,0.0000,0.0000,0.0000,0.0000,nothing
134112,-0.1813,0.0390,-0.0368,0.3316,1.2157,-9.7178,1.8824,7.0324,172.7176,0.0000,0.0000,0.0000,0.0000,0.0000,nothing
134228,-0.1632,0.0399,0.0045,0.3472,1.1965,-9.7513,1.8965,7.0282,172.7179,0.0000,0.0000,0.0000,0.0000,0.0000,nothing
134344,-0.1828,0.0549,-0.0473,0.3047,1.2355,-9.7447,1.8845,7.0476,172.7023,0.0000,0.0000,0.0000,0.0000,0.0000,nothing
134460,-0.1962,0.0789,0.0183,0.3083,1.2175,-9.7681,1.8754,7.0530,172.6995,0.0000,0.0000,0.0000,0.0000,0.0000,nothing
134576,-0.1750,0.0601,-0.0249,0.2963,1.1798,-9.7531,1.8606,7.0371,172.7187,0.0000,0.0000,0.0000,0.0000,0.0000,nothing
134692,-0.1748,0.0480,0.0299,0.3687,1.2253,-9.7579,1.8893,7.0486,172.7001,0.0000,0.0000,0.0000,0.0000,0.0000,nothing
134808,-0.2264,0.0867,-0.0260,0.3029,1.2097,-9.7388,1.8772,7.0515,172.7005,0.0000,0.0000,0.0000,0.0000,0.0000,nothing
134924,-0.1951,0.0494,0.0090,0.2580,1.1499,-9.7471,1.8401,7.0190,172.7415,0.0000,0.0000,0.0000,0.0000,0.0000,nothing
135040,-0.1575,0.0658,-0.0181,0.2801,1.2319,-9.7453,1.8194,7.0372,172.7291,0.0000,0.0000,0.0000,0.0000,0.0000,nothing
135156,-0.1954,0.0684,0.0254,0.3460,1.2115,-9.7196,1.8397,7.0435,172.7178,0.0000,0.0000,0.0000,0.0000,0.0000,nothing
135272,-0.1770,0.0720,-0.0254,0.3442,1.1798,-9.7633,1.8562,7.0277,172.7289,0.0000,0.0000,0.0000,0.0000,0.0000,nothing
135388,-0.2132,0.0515,0.0180,0.2975,1.1576,-9.8184,1.8429,6.9969,172.7621,0.0000,0.0000,0.0000,0.0000,0.0000,nothing
135504,-0.1236,0.0859,-0.0165,0.4076,1.1546,-9.6849,1.8976,6.9767,172.7674,0.0000,0.0000,0.0000,0.0000,0.0000,nothing
135620,-0.2517,0.0406,0.0020,0.3023,1.4216,-9.7412,1.8837,7.1092,172.6430,0.0000,0.0000,0.0000,0.0000,0.0000,nothing
135736,-0.2832,0.0757,-0.0076,0.3651,1.2241,-9.7573,1.9080,7.1129,172.6331,0.0000,0.0000,0.0000,0.0000,0.0000,nothing
135852,-0.2478,0.0635,0.0404,0.2706,1.1576,-9.7998,1.8741,7.0749,172.6786,0.0000,0.0000,0.0000,0.0000,0.0000,nothing
135968,-0.1513,0.0132,0.0361,0.3346,1.0014,-9.7340,1.8825,6.9549,172.7924,0.0000,0.0000,0.0000,0.0000,0.0000,nothing
136084,-0.0634,0.0375,-0.0533,0.3065,1.2720,-9.7501,1.8728,7.0023,172.7491,0.0000,0.0000,0.0000,0.0000,0.0000,nothing
136200,-0.2046,0.0641,0.0357,0.3591,1.3234,-9.7034,1.8955,7.0780,172.6700,0.0000,0.0000,0.0000,0.0000,0.0000,nothing
136316,-0.2777,0.0675,0.0319,0.3262,1.2708,-9.7639,1.8957,7.1114,172.6377,0.0000,0.0000,0.0000,0.0000,0.0000,nothing
136432,-0.2237,0.0784,0.0506,0.2945,1.1301,-9.7250,1.8785,7.0630,172.6890,0.0000,0.0000,0.0000,0.0000,0.0000,nothing
136548,-0.2481,0.0733,-0.0199,0.3322,1.1523,-9.7477,1.8845,7.0305,172.7189,0.0000,0.0000,0.0000,0.0000,0.0000,nothing
136664,-0.1750,0.0687,0.0443,0.3627,1.1816,-9.7813,1.9070,7.0157,172.7272,0.0000,0.0000,0.0000,0.0000,0.0000,nothing
136780,-0.2140,0.0338,0.0005,0.2747,1.1798,-9.7519,1.8765,7.0037,172.7469,0.0000,0.0000,0.0000,0.0000,0.0000,nothing
136896,-0.1738,0.0507,-0.0273,0.2861,1.1882,-9.7597,1.8555,6.9971,172.7586,0.0000,0.0000,0.0000,0.0000,0.0000,nothing
137012,-0.1913,0.0432,0.0416,0.3388,1.2067,-9.7424,1.8676,7.0031,172.7497,0.0000,0.0000,0.0000,0.0000,0.0000,nothing
137128,-0.1767,0.0687,-0.0019,0.2993,1.2378,-9.7388,1.8555,7.0268,172.7300,0.0000,0.0000,0.0000,0.0000,0.0000,nothing
137244,-0.2050,0.0652,0.0409,0.2915,1.2241,-9.7471,1.8399,7.0396,172.7216,0.0000,0.0000,0.0000,0.0000,0.0000,nothing
137360,-0.2199,0.0950,0.0200,0.3232,1.2277,-9.7537,1.8442,7.0526,172.7078,0.0000,0.0000,0.0000,0.0000,0.0000,nothing
137476,-0.2114,0.0845,0.0170,0.3143,1.1786,-9.7555,1.8430,7.0359,172.7244,0.0000,0.0000,0.0000,0.0000,0.0000,nothing
137592,-0.2035,0.0720,-0.0063,0.2155,1.2001,-9.7495,1.7844,7.0339,172.7411,0.0000,0.0000,0.0000,0.0000,0.0000,nothing
137708,-0.1876,0.0349,0.0324,0.3783,1.2079,-9.7382,1.8267,7.0371,172.7274,0.0000,0.0000,0.0000,0.0000,0.0000,nothing
137824,-0.2155,0.0551,-0.0093,0.3412,1.2774,-9.7765,1.8423,7.0775,172.6843,0.0000,0.0000,0.0000,0.0000,0.0000,nothing
137940,-0.1828,0.0738,-0.0240,0.2688,1.2307,-9.7418,1.8148,7.0894,172.6796,0.0000,0.0000,0.0000,0.0000,0.0000,nothing
138056,-0.2461,0.0735,0.0256,0.3538,1.2468,-9.7507,1.8395,7.1087,172.6548,0.0000,0.0000,0.0000,0.0000,0.0000,nothing
138172,-0.2254,0.0836,-0.0050,0.3490,1.2630,-9.7501,1.8588,7.1355,172.6239,0.0000,0.0000,0.0000,0.0000,0.0000,nothing
138288,-0.2274,0.0652,-0.0106,0.3214,1.1792,-9.7310,1.8607,7.1125,172.6456,0.0000,0.0000,0.0000,0.0000,0.0000,nothing
138404,-0.2053,0.0375,-0.0395,0.2855,1.1858,-9.7741,1.8407,7.0927,172.6700,0.0000,0.0000,0.0000,0.0000,0.0000,nothing
138520,-0.2170,0.0675,0.0164,0.3693,1.1744,-9.7795,1.8715,7.0677,172.6863,0.0000,0.0000,0.0000,0.0000,0.0000,nothing
138636,-0.1723,0.0678,0.0247,0.2903,1.1912,-9.7531,1.8536,7.0569,172.7013,0.0000,0.0000,0.0000,0.0000,0.0000,nothing
138752,-0.1731,0.0585,0.0256,0.3741,1.2714,-9.7082,1.8869,7.0966,172.6543,0.0000,0.0000,0.0000,0.0000,0.0000,nothing
138868,-0.2369,0.0660,-0.0116,0.3262,1.2708,-9.7382,1.8885,7.1300,172.6216,0.0000,0.0000,0.0000,0.0000,0.0000,nothing
138984,-0.2249,0.0699,0.0100,0.3454,1.2402,-9.7011,1.9018,7.1451,172.6036,0.0000,0.0000,0.0000,0.0000,0.0000,nothing
139100,-0.2083,0.0917,0.0198,0.3669,1.1876,-9.7483,1.9256,7.1246,172.6171,0.0000,0.0000,0.0000,0.0000,0.0000,nothing
139216,-0.1914,0.0642,0.0108,0.3795,1.1499,-9.7489,1.9545,7.0844,172.6483,0.0000,0.0000,0.0000,0.0000,0.0000,nothing
139332,-0.1554,0.0207,-0.0121,0.3831,1.1696,-9.8381,1.9807,7.0531,172.6713,0.0000,0.0000,0.0000,0.0000,0.0000,nothing
139448,-0.1600,-0.0080,0.0142,0.3466,1.2576,-9.8022,1.9835,7.0786,172.6460,0.0000,0.0000,0.0000,0.0000,0.0000,nothing
139564,-0.1964,0.1003,-0.0226,0.2412,1.4210,-9.5915,1.9284,7.2115,172.5325,0.0000,0.0000,0.0000,0.0000,0.0000,nothing
139680,-0.2375,0.0682,0.0953,0.2670,1.3145,-9.7519,1.8909,7.2578,172.4973,0.0000,0.0000,0.0000,0.0000,0.0000,nothing
139796,-0.2540,0.0927,-0.0134,0.6764,1.0409,-9.7507,2.0964,7.1403,172.5552,0.0000,0.0000,0.0000,0.0000,0.0000,nothing
139912,-0.2448,0.0687,-0.0020,0.1832,1.2540,-9.7795,1.9929,7.1570,172.5679,0.0000,0.0000,0.0000,0.0000,0.0000,nothing
140028,-0.1825,0.0890,0.0444,0.1682,1.2073,-9.6783,1.8931,7.1524,172.5988,0.0000,0.0000,0.0000,0.0000,0.0000,nothing
140144,-0.2087,0.0777,0.0070,0.4358,1.1139,-9.7424,1.9582,7.0889,172.6429,0.0000,0.0000,0.0000,0.0000,0.0000,nothing
140260,-0.0971,0.0048,0.0142,0.6087,0.9505,-9.5586,2.1220,6.9496,172.7306,0.0000,0.0000,0.0000,0.0000,0.0000,nothing
140376,-0.2807,0.0105,-0.0042,0.2646,1.0194,-9.9225,2.0608,6.8393,172.8542,0.0000,0.0000,0.0000,0.0000,0.0000,nothing
140492,-0.2222,0.0466,0.0438,0.3119,1.2426,-9.6603,2.0383,6.8876,172.8143,0.0000,0.0000,0.0000,0.0000,0.0000,nothing
140608,-0.2752,0.1171,0.0213,-0.0646,1.5629,-9.7513,1.7957,7.1112,172.6633,0.0000,0.0000,0.0000,0.0000,0.0000,nothing
140724,-0.2626,0.1731,0.0611,0.5178,1.4288,-9.4880,1.9226,7.2527,172.4942,0.0000,0.0000,0.0000,0.0000,0.0000,nothing
140840,-0.2889,0.0956,-0.0134,0.0168,0.9990,-9.8471,1.7384,7.1057,172.6827,0.0000,0.0000,0.0000,0.0000,0.0000,nothing
140956,-0.2247,0.0160,0.0234,0.3148,1.0720,-9.7615,1.7482,7.0213,172.7622,0.0000,0.0000,0.0000,0.0000,0.0000,nothing
141072,-0.1973,0.0788,0.0160,0.4400,1.0589,-9.7681,1.8300,6.9371,172.8233,0.0000,0.0000,0.0000,0.0000,0.0000,nothing
141188,-0.1960,0.0624,0.0165,0.3382,1.2151,-9.7292,1.8446,6.9549,172.8023,0.0000,0.0000,0.0000,0.0000,0.0000,nothing
141304,-0.3172,0.2361,0.0885,0.2825,1.6922,-9.5532,1.8273,7.2604,172.5108,0.0000,0.0000,0.0000,0.0000,0.0000,nothing
141420,-0.0577,0.1934,-0.0263,0.5854,1.1822,-9.3814,1.9937,7.2517,172.4763,0.0000,0.0000,0.0000,0.0000,0.0000,nothing
141536,-0.1212,0.0868,-0.0274,0.3801,0.8452,-9.8746,2.0144,7.0121,172.7015,0.0000,0.0000,0.0000,0.0000,0.0000,nothing
141652,-0.1288,-0.0140,0.0485,0.3532,1.0720,-9.7878,2.0184,6.9351,172.7744,0.0000,0.0000,0.0000,0.0000,0.0000,nothing
141768,-0.0339,0.0894,0.0090,0.3346,1.1744,-9.6735,2.0133,6.9334,172.7775,0.0000,0.0000,0.0000,0.0000,0.0000,nothing
141884,-0.1211,-0.0799,0.0374,0.4058,0.6728,-9.9423,2.0460,6.6216,173.0668,0.0000,0.0000,0.0000,0.0000,0.0000,nothing
142000,-0.2139,-0.0093,-0.0593,0.4543,1.1971,-9.7190,2.1070,6.6609,173.0109,0.0000,0.0000,0.0000,0.0000,0.0000,nothing
142116,-0.1974,0.0938,0.0339,0.2550,1.2791,-9.7106,2.0455,6.7450,172.9489,0.0000,0.0000,0.0000,0.0000,0.0000,nothing
142232,-0.2386,0.0682,-0.1137,0.4106,1.0164,-9.7860,2.0801,6.6626,173.0174,0.0000,0.0000,0.0000,0.0000,0.0000,nothing
142348,-0.1393,0.0142,-0.0495,0.2879,1.1313,-9.7735,2.0396,6.6563,173.0355,0.0000,0.0000,0.0000,0.0000,0.0000,nothing
142464,-0.1840,0.0474,0.0823,0.1239,1.2732,-9.7519,1.9075,6.7348,172.9979,0.0000,0.0000,0.0000,0.0000,0.0000,nothing
142580,-0.1508,0.0875,-0.0046,0.4160,1.1020,-9.7831,1.9589,6.7033,173.0138,0.0000,0.0000,0.0000,0.0000,0.0000,nothing
142696,-0.2120,0.0423,0.0275,0.2616,1.2953,-9.7447,1.9154,6.7900,172.9425,0.0000,0.0000,0.0000,0.0000,0.0000,nothing
142812,-0.1595,0.0710,0.0042,0.3442,1.3139,-9.7017,1.9252,6.8816,172.8517,0.0000,0.0000,0.0000,0.0000,0.0000,nothing
142928,-0.2014,0.0668,-0.0181,0.3208,1.2558,-9.7274,1.9200,6.9287,172.8077,0.0000,0.0000,0.0000,0.0000,0.0000,nothing
143044,-0.1906,0.0676,0.0063,0.4028,1.2241,-9.7436,1.9630,6.9513,172.7742,0.0000,0.0000,0.0000,0.0000,0.0000,nothing
143160,-0.2089,0.0585,0.0489,0.2658,1.2043,-9.7436,1.9217,6.9605,172.7765,0.0000,0.0000,0.0000,0.0000,0.0000,nothing
143276,-0.1528,0.0789,-0.0115,0.3532,1.2283,-9.7154,1.9361,6.9845,172.7495,0.0000,0.0000,0.0000,0.0000,0.0000,nothing
143392,-0.1790,0.0603,-0.0597,0.3304,1.2019,-9.7118,1.9358,6.9912,172.7432,0.0000,0.0000,0.0000,0.0000,0.0000,nothing
143508,-0.1800,0.1223,-0.0116,0.2957,1.1959,-9.7238,1.9152,6.9929,172.7471,0.0000,0.0000,0.0000,0.0000,0.0000,nothing
143624,-0.1674,0.0668,0.0318,0.3358,1.2277,-9.7220,1.9199,7.0129,172.7265,0.0000,0.0000,0.0000,0.0000,0.0000,nothing
143740,-0.2296,0.0798,0.1007,0.3226,1.2211,-9.7483,1.9160,7.0252,172.7157,0.0000,0.0000,0.0000,0.0000,0.0000,nothing
143856,-0.1658,0.0488,0.0349,0.3388,1.2001,-9.7196,1.9225,7.0262,172.7130,0.0000,0.0000,0.0000,0.0000,0.0000,nothing
143972,-0.1410,0.0498,0.0894,0.2245,1.2019,-9.7513,1.8611,7.0261,172.7292,0.0000,0.0000,0.0000,0.0000,0.0000,nothing
144088,-0.1688,0.0517,0.0417,0.3250,1.3665,-9.7250,1.8645,7.1230,172.6346,0.0000,0.0000,0.0000,0.0000,0.0000,nothing
144204,-0.2613,0.0663,0.0139,0.4567,1.2390,-9.7627,1.9441,7.1333,172.6039,0.0000,0.0000,0.0000,0.0000,0.0000,nothing
144320,-0.2604,0.0753,-0.0011,0.2538,1.1840,-9.7268,1.8981,7.1138,172.6348,0.0000,0.0000,0.0000,0.0000,0.0000,nothing
144436,-0.1538,0.0547,0.0200,0.3262,1.1810,-9.7232,1.8990,7.0946,172.6531,0.0000,0.0000,0.0000,0.0000,0.0000,nothing
144552,-0.2000,0.1117,0.0570,0.4723,1.2127,-9.7280,1.9849,7.0950,172.6298,0.0000,0.0000,0.0000,0.0000,0.0000,nothing
144668,-0.1851,0.0813,-0.0256,0.3597,1.1762,-9.7453,1.9963,7.0732,172.6477,0.0000,0.0000,0.0000,0.0000,0.0000,nothing
144784,-0.2202,0.0872,0.1091,0.2340,1.1834,-9.8226,1.9318,7.0525,172.6851,0.0000,0.0000,0.0000,0.0000,0.0000,nothing
144900,-0.2030,0.0459,-0.0153,0.3891,1.2199,-9.7352,1.9657,7.0610,172.6679,0.0000,0.0000,0.0000,0.0000,0.0000,nothing
145016,-0.2029,0.0413,-0.0404,0.4088,1.1666,-9.7603,2.0073,7.0359,172.6806,0.0000,0.0000,0.0000,0.0000,0.0000,nothing
145132,-0.2064,0.0575,0.0286,0.2077,1.2103,-9.6621,1.9294,7.0461,172.6920,0.0000,0.0000,0.0000,0.0000,0.0000,nothing
145248,-0.1906,0.0620,-0.0093,0.2849,1.1959,-9.7825,1.9019,7.0382,172.7069,0.0000,0.0000,0.0000,0.0000,0.0000,nothing
145364,-0.1909,0.0464,-0.0068,0.3502,1.1726,-9.7501,1.9160,7.0197,172.7210,0.0000,0.0000,0.0000,0.0000,0.0000,nothing
145480,-0.2204,0.0802,-0.0697,0.3771,1.2181,-9.7136,1.9449,7.0319,172.7015,0.0000,0.0000,0.0000,0.0000,0.0000,nothing
145596,-0.2093,0.0915,-0.0241,0.2903,1.2426,-9.7603,1.9194,7.0540,172.6870,0.0000,0.0000,0.0000,0.0000,0.0000,nothing
145712,-0.2019,0.0800,-0.0091,0.2795,1.3103,-9.7088,1.8909,7.1168,172.6338,0.0000,0.0000,0.0000,0.0000,0.0000,nothing
145828,-0.2249,0.0843,0.0503,0.3436,1.3552,-9.7046,1.9026,7.1995,172.5508,0.0000,0.0000,0.0000,0.0000,0.0000,nothing
145944,-0.2823,0.0975,0.0181,0.3538,1.1666,-9.7621,1.9185,7.1605,172.5844,0.0000,0.0000,0.0000,0.0000,0.0000,nothing
146060,-0.1765,0.0694,-0.0309,0.2598,1.1720,-9.7310,1.8785,7.1310,172.6232,0.0000,0.0000,0.0000,0.0000,0.0000,nothing
146176,-0.2034,0.0627,0.0072,0.2652,1.2091,-9.7244,1.8457,7.1264,172.6360,0.0000,0.0000,0.0000,0.0000,0.0000,nothing
146292,-0.2191,0.0837,0.0753,0.3406,1.2372,-9.7519,1.8596,7.1364,172.6228,0.0000,0.0000,0.0000,0.0000,0.0000,nothing
146408,-0.2202,0.0661,0.0174,0.3538,1.1367,-9.7358,1.8803,7.0883,172.6640,0.0000,0.0000,0.0000,0.0000,0.0000,nothing
146524,-0.1898,0.0548,-0.0545,0.2532,1.2043,-9.7465,1.8400,7.0837,172.6789,0.0000,0.0000,0.0000,0.0000,0.0000,nothing
146640,-0.1958,0.0710,0.0139,0.2801,1.2378,-9.7615,1.8190,7.0978,172.6705,0.0000,0.0000,0.0000,0.0000,0.0000,nothing
146756,-0.1662,0.0732,0.0116,0.2448,1.1720,-9.7028,1.7807,7.0766,172.7006,0.0000,0.0000,0.0000,0.0000,0.0000,nothing
146872,-0.1919,0.0282,-0.0380,0.3083,1.1900,-9.7154,1.7830,7.0669,172.7094,0.0000,0.0000,0.0000,0.0000,0.0000,nothing
146988,-0.2170,0.0705,0.0177,0.3933,1.2738,-9.7561,1.8338,7.1036,172.6612,0.0000,0.0000,0.0000,0.0000,0.0000,nothing
147104,-0.2375,0.0942,0.0025,0.3023,1.2337,-9.6999,1.8275,7.1177,172.6491,0.0000,0.0000,0.0000,0.0000,0.0000,nothing
147220,-0.2286,0.0881,0.0068,0.2765,1.2468,-9.6957,1.8069,7.1383,172.6342,0.0000,0.0000,0.0000,0.0000,0.0000,nothing
147336,-0.2140,0.0661,-0.0020,0.2975,1.2301,-9.7465,1.7996,7.1435,172.6310,0.0000,0.0000,0.0000,0.0000,0.0000,nothing
147452,-0.1999,0.0532,-0.0203,0.3268,1.1732,-9.7639,1.8100,7.1138,172.6572,0.0000,0.0000,0.0000,0.0000,0.0000,nothing
147568,-0.1951,0.0994,0.0085,0.3382,1.2145,-9.7268,1.8266,7.1137,172.6531,0.0000,0.0000,0.0000,0.0000,0.0000,nothing
147684,-0.1712,0.0900,0.0360,0.3101,1.2001,-9.7364,1.8250,7.1047,172.6623,0.0000,0.0000,0.0000,0.0000,0.0000,nothing
147800,-0.1665,0.0628,-0.0522,0.2975,1.2175,-9.7663,1.8156,7.1045,172.6648,0.0000,0.0000,0.0000,0.0000,0.0000,nothing
147916,-0.2506,0.1091,0.0135,0.1874,1.3324,-9.7669,1.7426,7.1711,172.6180,0.0000,0.0000,0.0000,0.0000,0.0000,nothing
148032,-0.2105,0.0588,-0.0090,0.4603,1.1528,-9.8256,1.8355,7.1222,172.6427,0.0000,0.0000,0.0000,0.0000,0.0000,nothing
148148,-0.1790,0.0736,-0.0215,0.1490,1.2582,-9.7058,1.7395,7.1485,172.6408,0.0000,0.0000,0.0000,0.0000,0.0000,nothing
148264,-0.2054,0.0708,0.0555,0.3717,1.1618,-9.7531,1.7823,7.1125,172.6654,0.0000,0.0000,0.0000,0.0000,0.0000,nothing
148380,-0.2011,0.0757,-0.0465,0.4447,1.1894,-9.7304,1.8638,7.0975,172.6595,0.0000,0.0000,0.0000,0.0000,0.0000,nothing
148496,-0.2102,0.0552,0.0465,0.2209,1.2744,-9.7076,1.8068,7.1353,172.6372,0.0000,0.0000,0.0000,0.0000,0.0000,nothing
