timestamp_ms,gyro_x,gyro_y,gyro_z,accel_x,accel_y,accel_z,roll,pitch,yaw,adc0,adc1,adc2,adc3,adc4,Label
16023,-0.2136,0.0424,0.0607,0.3520,1.2654,-9.7459,1.8070,7.1449,172.6278,0.0000,0.0000,0.0000,0.0000,0.0000,nothing
16139,-0.2117,0.0920,0.0404,0.3095,1.2109,-9.7633,1.8065,7.1371,172.6355,0.0000,0.0000,0.0000,0.0000,0.0000,nothing
16255,-0.2169,0.0492,0.0337,0.2957,1.1947,-9.7094,1.7990,7.1246,172.6495,0.0000,0.0000,0.0000,0.0000,0.0000,nothing
16371,-0.1651,0.0841,0.0724,0.3214,1.2486,-9.7573,1.8063,7.1410,172.6318,0.0000,0.0000,0.0000,0.0000,0.0000,nothing
16487,-0.2195,0.0470,0.0239,0.3705,1.2151,-9.7513,1.8416,7.1367,172.6271,0.0000,0.0000,0.0000,0.0000,0.0000,nothing
16603,-0.2127,0.0683,0.0119,0.3101,1.1965,-9.7675,1.8379,7.1211,172.6432,0.0000,0.0000,0.0000,0.0000,0.0000,nothing
16719,-0.2023,0.0581,0.0649,0.3023,1.1953,-9.7453,1.8304,7.1079,172.6578,0.0000,0.0000,0.0000,0.0000,0.0000,nothing
16835,-0.2091,0.0798,0.0254,0.2885,1.2169,-9.7334,1.8159,7.1095,172.6600,0.0000,0.0000,0.0000,0.0000,0.0000,nothing
16951,-0.0196,-0.0544,-0.0170,0.3579,0.8081,-9.6885,1.8450,6.8772,172.8773,0.0000,0.0000,0.0000,0.0000,0.0000,หนึ่ง
17067,-0.2108,0.0968,-0.0747,0.4423,1.3731,-9.5227,1.9224,7.0069,172.7316,0.0000,0.0000,0.0000,0.0000,0.0000,หนึ่ง
17183,-0.3200,0.0720,0.0376,0.2903,1.4198,-9.7807,1.8983,7.1328,172.6163,0.0000,0.0000,0.0000,0.0000,0.0000,หนึ่ง
17299,-0.3390,0.0962,-0.0097,0.2897,1.1786,-9.7406,1.8776,7.1091,172.6446,0.0000,0.0000,0.0000,0.0000,0.0000,หนึ่ง
17415,-0.2165,0.0146,-0.0683,0.3059,1.1636,-9.7501,1.8682,7.0784,172.6767,0.0000,0.0000,0.0000,0.0000,0.0000,หนึ่ง
17531,-0.1581,0.0840,-0.0421,0.3202,1.1534,-9.7172,1.8689,7.0472,172.7068,0.0000,0.0000,0.0000,0.0000,0.0000,หนึ่ง
17647,-0.1731,0.0622,0.0224,0.2729,1.2097,-9.7280,1.8415,7.0511,172.7101,0.0000,0.0000,0.0000,0.0000,0.0000,หนึ่ง
17763,-0.1783,0.0549,-0.0290,0.3651,1.0750,-9.7358,1.8708,6.9757,172.7754,0.0000,0.0000,0.0000,0.0000,0.0000,หนึ่ง
17879,-0.2026,0.0365,-0.0164,0.3508,1.0840,-9.7477,1.8886,6.9123,172.8320,0.0000,0.0000,0.0000,0.0000,0.0000,หนึ่ง
17995,-0.4583,0.2413,0.0986,0.6896,1.8448,-9.5789,2.1039,7.3076,172.3924,0.0000,0.0000,0.0000,0.0000,0.0000,break_time
18111,-0.2904,0.1174,0.0309,0.3448,0.9218,-9.7771,2.0947,7.1147,172.5803,0.0000,0.0000,0.0000,0.0000,0.0000,break_time
18227,-0.0898,0.0455,0.0150,0.3148,1.0667,-9.8447,2.0671,7.0204,172.6786,0.0000,0.0000,0.0000,0.0000,0.0000,break_time
18343,-0.1122,0.0348,0.0173,0.2945,1.2175,-9.7256,2.0325,7.0316,172.6777,0.0000,0.0000,0.0000,0.0000,0.0000,break_time
18459,-0.1453,0.0494,-0.0337,0.3047,1.2588,-9.7693,2.0063,7.0624,172.6553,0.0000,0.0000,0.0000,0.0000,0.0000,break_time
18575,-0.1506,0.0607,-0.0191,0.3196,1.1906,-9.7124,1.9928,7.0547,172.6665,0.0000,0.0000,0.0000,0.0000,0.0000,break_time
18691,-0.1815,0.0586,-0.0601,0.3113,1.2157,-9.7591,1.9748,7.0590,172.6673,0.0000,0.0000,0.0000,0.0000,0.0000,break_time
18807,-0.1888,0.0762,-0.0076,0.3226,1.2127,-9.7310,1.9657,7.0631,172.6658,0.0000,0.0000,0.0000,0.0000,0.0000,break_time
18923,-0.1860,0.0533,0.0758,0.2867,1.2528,-9.7442,1.9363,7.0891,172.6486,0.0000,0.0000,0.0000,0.0000,0.0000,break_time
19039,-0.1982,0.0653,-0.0897,0.3160,1.2702,-9.7286,1.9272,7.1237,172.6176,0.0000,0.0000,0.0000,0.0000,0.0000,break_time
19155,-0.2089,0.0837,0.0650,0.3472,1.2133,-9.7591,1.9367,7.1195,172.6191,0.0000,0.0000,0.0000,0.0000,0.0000,break_time
19271,-0.1887,0.0429,0.0049,0.3274,1.2211,-9.7400,1.9340,7.1218,172.6177,0.0000,0.0000,0.0000,0.0000,0.0000,break_time
19387,-0.2213,0.1046,0.0000,0.3113,1.2145,-9.7585,1.9219,7.1187,172.6239,0.0000,0.0000,0.0000,0.0000,0.0000,break_time
19503,-0.2112,0.1022,-0.0052,0.3286,1.2223,-9.7214,1.9218,7.1230,172.6197,0.0000,0.0000,0.0000,0.0000,0.0000,break_time
19619,-0.2303,0.0687,-0.0065,0.3304,1.1816,-9.7675,1.9220,7.1000,172.6419,0.0000,0.0000,0.0000,0.0000,0.0000,break_time
19735,-0.1982,0.0768,0.0222,0.3083,1.2043,-9.7447,1.9096,7.0942,172.6507,0.0000,0.0000,0.0000,0.0000,0.0000,break_time
19851,-0.2367,0.0708,-0.0095,0.3496,1.1702,-9.7178,1.9231,7.0710,172.6695,0.0000,0.0000,0.0000,0.0000,0.0000,break_time
19967,-0.2191,0.0746,-0.0255,0.2718,1.2241,-9.7483,1.8892,7.0794,172.6704,0.0000,0.0000,0.0000,0.0000,0.0000,break_time
20083,-0.1919,0.0526,0.0072,0.3101,1.2037,-9.7400,1.8813,7.0756,172.6761,0.0000,0.0000,0.0000,0.0000,0.0000,break_time
20199,-0.2139,0.0807,-0.0100,0.3376,1.2163,-9.7537,1.8899,7.0785,172.6711,0.0000,0.0000,0.0000,0.0000,0.0000,break_time
20315,-0.1626,0.0509,0.0219,0.2957,1.1959,-9.7370,1.8735,7.0705,172.6830,0.0000,0.0000,0.0000,0.0000,0.0000,break_time
20431,-0.1883,0.0738,0.0086,0.2801,1.1918,-9.7298,1.8499,7.0615,172.6978,0.0000,0.0000,0.0000,0.0000,0.0000,break_time
20547,-0.2181,0.0678,-0.0196,0.4567,1.1720,-9.7531,1.9312,7.0399,172.6974,0.0000,0.0000,0.0000,0.0000,0.0000,break_time
20663,-0.1911,0.0564,0.0160,0.3657,1.2037,-9.7747,1.9508,7.0375,172.6945,0.0000,0.0000,0.0000,0.0000,0.0000,break_time
20779,-0.1695,0.0733,-0.0225,0.2562,1.2277,-9.7208,1.9056,7.0532,172.6913,0.0000,0.0000,0.0000,0.0000,0.0000,break_time
20895,-0.1914,0.0579,0.0686,0.3478,1.1995,-9.7376,1.9181,7.0497,172.6914,0.0000,0.0000,0.0000,0.0000,0.0000,break_time
21011,-0.1909,0.0712,0.0005,0.3166,1.0864,-9.7753,1.9106,6.9785,172.7622,0.0000,0.0000,0.0000,0.0000,0.0000,nothing
21127,-0.1921,0.0556,0.0164,0.3065,1.2055,-9.7447,1.8984,6.9855,172.7586,0.0000,0.0000,0.0000,0.0000,0.0000,nothing
21243,-0.1860,0.0714,-0.0074,0.2837,1.2181,-9.7370,1.8741,6.9997,172.7513,0.0000,0.0000,0.0000,0.0000,0.0000,nothing
21359,-0.2023,0.0825,0.0288,0.3615,1.2175,-9.7573,1.8973,7.0106,172.7347,0.0000,0.0000,0.0000,0.0000,0.0000,nothing
21475,-0.2067,0.0327,-0.0232,0.2718,1.2372,-9.7316,1.8663,7.0338,172.7204,0.0000,0.0000,0.0000,0.0000,0.0000,nothing
21591,-0.2563,0.1027,0.0046,0.3442,1.1864,-9.7058,1.8812,7.0269,172.7232,0.0000,0.0000,0.0000,0.0000,0.0000,หนึ่ง
21707,-0.3686,0.0162,0.0093,0.1245,0.8458,-9.8645,1.7644,6.8128,172.9604,0.0000,0.0000,0.0000,0.0000,0.0000,หนึ่ง
21823,0.1511,-0.0224,-0.0855,0.4274,1.1983,-9.6939,1.8381,6.8355,172.9194,0.0000,0.0000,0.0000,0.0000,0.0000,หนึ่ง
21939,-0.1441,0.0620,-0.0314,0.3029,1.4192,-9.6927,1.8315,6.9842,172.7773,0.0000,0.0000,0.0000,0.0000,0.0000,หนึ่ง
22055,-0.3415,0.1141,0.0904,0.4226,1.3151,-9.7681,1.8941,7.0522,172.6954,0.0000,0.0000,0.0000,0.0000,0.0000,หนึ่ง
22171,-0.2791,0.0658,-0.0438,0.2502,1.2331,-9.7184,1.8511,7.0698,172.6895,0.0000,0.0000,0.0000,0.0000,0.0000,หนึ่ง
22287,-0.2162,0.0690,-0.0301,0.3089,1.1702,-9.7711,1.8458,7.0454,172.7145,0.0000,0.0000,0.0000,0.0000,0.0000,หนึ่ง
22403,-0.2188,0.0938,0.0204,0.3214,1.2013,-9.7519,1.8486,7.0427,172.7163,0.0000,0.0000,0.0000,0.0000,0.0000,หนึ่ง
22519,-0.1716,0.0273,-0.0590,0.2077,1.0122,-9.8238,1.7839,6.9261,172.8457,0.0000,0.0000,0.0000,0.0000,0.0000,หนึ่ง
22635,0.0374,0.0286,-0.0256,0.2801,1.0451,-9.8094,1.7681,6.8411,172.9320,0.0000,0.0000,0.0000,0.0000,0.0000,break_time
22751,-0.1785,0.0449,0.0086,0.4016,1.3797,-9.6897,1.8261,6.9662,172.7961,0.0000,0.0000,0.0000,0.0000,0.0000,break_time
22867,-0.2748,0.1050,0.0639,0.3298,1.3025,-9.7070,1.8364,7.0332,172.7286,0.0000,0.0000,0.0000,0.0000,0.0000,break_time
22983,-0.2652,0.0930,-0.0071,0.3424,1.2193,-9.7501,1.8523,7.0423,172.7158,0.0000,0.0000,0.0000,0.0000,0.0000,break_time
23099,-0.2218,0.0728,0.0109,0.3591,1.1840,-9.7238,1.8770,7.0318,172.7195,0.0000,0.0000,0.0000,0.0000,0.0000,break_time
23215,-0.2183,0.0607,-0.0110,0.2861,1.2390,-9.7477,1.8561,7.0528,172.7047,0.0000,0.0000,0.0000,0.0000,0.0000,break_time
23331,-0.1677,0.0641,-0.0553,0.3591,1.2103,-9.7693,1.8795,7.0533,172.6982,0.0000,0.0000,0.0000,0.0000,0.0000,break_time
23447,-0.1861,0.0720,0.0371,0.3280,1.2145,-9.7477,1.8828,7.0577,172.6930,0.0000,0.0000,0.0000,0.0000,0.0000,break_time
23563,-0.2068,0.0676,-0.0274,0.2927,1.2355,-9.7633,1.8648,7.0729,172.6830,0.0000,0.0000,0.0000,0.0000,0.0000,break_time
23679,-0.2119,0.0717,0.0402,0.2544,1.2241,-9.7681,1.8263,7.0796,172.6862,0.0000,0.0000,0.0000,0.0000,0.0000,break_time
23795,-0.1869,0.0780,0.0428,0.3729,1.2169,-9.7358,1.8613,7.0836,172.6735,0.0000,0.0000,0.0000,0.0000,0.0000,break_time
23911,-0.2324,0.1024,0.0037,0.3597,1.2235,-9.7489,1.8849,7.0901,172.6611,0.0000,0.0000,0.0000,0.0000,0.0000,break_time
24027,-0.1868,0.0611,0.0015,0.2843,1.2151,-9.7232,1.8626,7.0931,172.6640,0.0000,0.0000,0.0000,0.0000,0.0000,break_time
24143,-0.2041,0.0844,-0.0108,0.3514,1.2001,-9.7196,1.8818,7.0873,172.6647,0.0000,0.0000,0.0000,0.0000,0.0000,break_time
24259,-0.2183,0.0926,0.0239,0.2861,1.0918,-9.7447,1.8608,7.0176,172.7375,0.0000,0.0000,0.0000,0.0000,0.0000,break_time
24375,-0.2082,0.0519,0.0211,0.3579,1.1798,-9.7537,1.8834,7.0051,172.7437,0.0000,0.0000,0.0000,0.0000,0.0000,break_time
24491,-0.2112,0.0537,-0.0067,0.2753,1.1816,-9.7621,1.8554,6.9944,172.7613,0.0000,0.0000,0.0000,0.0000,0.0000,break_time
24607,-0.1944,0.0721,0.0434,0.2628,1.0774,-9.7184,1.8239,6.9277,172.8340,0.0000,0.0000,0.0000,0.0000,0.0000,break_time
24723,-0.2556,-0.0217,0.0020,0.0156,1.3019,-9.7262,1.6508,6.9975,172.8085,0.0000,0.0000,0.0000,0.0000,0.0000,break_time
24839,-0.1708,0.0601,0.0086,0.4028,1.3701,-9.6783,1.7215,7.1026,172.6897,0.0000,0.0000,0.0000,0.0000,0.0000,break_time
24955,-0.1945,0.0543,-0.0244,0.2867,1.1732,-9.7442,1.7167,7.0785,172.7142,0.0000,0.0000,0.0000,0.0000,0.0000,break_time
25071,-0.2224,0.0781,0.0267,0.2783,1.2552,-9.7340,1.7074,7.1052,172.6905,0.0000,0.0000,0.0000,0.0000,0.0000,break_time
25187,-0.1890,0.0631,-0.0192,0.3424,1.1469,-9.6897,1.7375,7.0694,172.7180,0.0000,0.0000,0.0000,0.0000,0.0000,break_time
25303,-0.1830,0.0657,0.0582,0.2460,1.2139,-9.7370,1.7074,7.0729,172.7219,0.0000,0.0000,0.0000,0.0000,0.0000,break_time
25419,-0.1806,0.0579,0.0513,0.3053,1.1971,-9.7268,1.7151,7.0669,172.7259,0.0000,0.0000,0.0000,0.0000,0.0000,break_time
25535,-0.2069,0.0436,0.0065,0.2861,1.2271,-9.7747,1.7099,7.0755,172.7188,0.0000,0.0000,0.0000,0.0000,0.0000,break_time
25651,-0.2382,0.0540,0.0045,0.3442,1.1977,-9.7298,1.7400,7.0693,172.7176,0.0000,0.0000,0.0000,0.0000,0.0000,nothing
25767,-0.2083,0.0634,-0.0061,0.3645,1.1906,-9.7459,1.7786,7.0584,172.7188,0.0000,0.0000,0.0000,0.0000,0.0000,nothing
25883,-0.1999,0.0686,-0.0179,0.2993,1.2331,-9.7334,1.7755,7.0742,172.7042,0.0000,0.0000,0.0000,0.0000,0.0000,nothing
25999,-0.2398,0.0393,0.0753,0.2107,1.1822,-9.7346,1.7211,7.0591,172.7321,0.0000,0.0000,0.0000,0.0000,0.0000,nothing
26115,-0.0559,0.0270,0.0387,-0.0880,1.6215,-10.0440,1.4923,7.2776,172.5693,0.0000,0.0000,0.0000,0.0000,0.0000,หนึ่ง
26231,-0.4228,0.0588,-0.0082,0.3711,1.1576,-9.7795,1.5589,7.2245,172.6075,0.0000,0.0000,0.0000,0.0000,0.0000,หนึ่ง
26347,-0.2187,0.0443,0.0041,0.1119,1.0613,-9.8555,1.4672,7.1161,172.7327,0.0000,0.0000,0.0000,0.0000,0.0000,หนึ่ง
26463,-0.1122,0.0337,-0.0042,0.2287,1.0756,-9.7208,1.4545,7.0363,172.8135,0.0000,0.0000,0.0000,0.0000,0.0000,หนึ่ง
26579,-0.1587,0.0386,-0.0228,0.3232,1.2720,-9.7406,1.4974,7.0762,172.7655,0.0000,0.0000,0.0000,0.0000,0.0000,หนึ่ง
26695,-0.1181,0.1140,-0.0443,0.4687,0.9392,-9.6903,1.6222,6.9230,172.8876,0.0000,0.0000,0.0000,0.0000,0.0000,หนึ่ง
26811,-0.0744,-0.0105,0.0583,0.4112,1.0002,-9.7124,1.7007,6.8189,172.9703,0.0000,0.0000,0.0000,0.0000,0.0000,break_time
26927,-0.1347,0.0410,-0.0068,0.2101,1.4473,-9.7896,1.6520,6.9788,172.8264,0.0000,0.0000,0.0000,0.0000,0.0000,break_time
27043,-0.2973,0.1217,0.0548,0.2634,1.3606,-9.6735,1.6413,7.0806,172.7297,0.0000,0.0000,0.0000,0.0000,0.0000,break_time
27159,-0.2669,0.0979,0.0413,0.4154,1.1906,-9.7442,1.7195,7.0686,172.7232,0.0000,0.0000,0.0000,0.0000,0.0000,break_time
27275,-0.2488,0.0604,0.0012,0.2382,1.1768,-9.7645,1.6863,7.0487,172.7504,0.0000,0.0000,0.0000,0.0000,0.0000,break_time
27391,-0.1883,0.0668,0.0091,0.3400,1.1451,-9.7364,1.7162,7.0143,172.7768,0.0000,0.0000,0.0000,0.0000,0.0000,break_time
27507,-0.1322,0.0154,0.0123,0.4040,1.1367,-9.7501,1.7803,6.9773,172.7970,0.0000,0.0000,0.0000,0.0000,0.0000,break_time
27623,-0.2068,0.0585,0.0194,0.2885,1.2666,-9.7693,1.7700,7.0181,172.7600,0.0000,0.0000,0.0000,0.0000,0.0000,break_time
27739,-0.2131,0.0626,0.0341,0.3927,1.1744,-9.6921,1.8230,7.0067,172.7577,0.0000,0.0000,0.0000,0.0000,0.0000,break_time
27855,-0.2076,0.0574,-0.0474,0.3029,1.2594,-9.7555,1.8171,7.0413,172.7257,0.0000,0.0000,0.0000,0.0000,0.0000,break_time
27971,-0.2149,0.0634,-0.0255,0.3430,1.2301,-9.7352,1.8355,7.0569,172.7060,0.0000,0.0000,0.0000,0.0000,0.0000,break_time
28087,-0.1705,0.0718,0.0420,0.3280,1.2241,-9.7603,1.8430,7.0656,172.6956,0.0000,0.0000,0.0000,0.0000,0.0000,break_time
28203,-0.1819,0.0582,-0.0281,0.2825,1.1409,-9.7250,1.8240,7.0280,172.7368,0.0000,0.0000,0.0000,0.0000,0.0000,break_time
28319,-0.2020,0.0785,-0.0097,0.3208,1.2079,-9.7238,1.8291,7.0329,172.7308,0.0000,0.0000,0.0000,0.0000,0.0000,break_time
28435,-0.2144,0.1193,0.0240,0.4226,1.2079,-9.7950,1.8917,7.0320,172.7155,0.0000,0.0000,0.0000,0.0000,0.0000,break_time
28551,-0.2034,0.0434,0.0221,0.3502,1.1433,-9.7831,1.9062,6.9949,172.7475,0.0000,0.0000,0.0000,0.0000,0.0000,break_time
28667,-0.2348,0.0406,0.0019,0.2634,1.1750,-9.7651,1.8689,6.9813,172.7705,0.0000,0.0000,0.0000,0.0000,0.0000,break_time
28783,-0.1933,0.0811,0.0435,0.3148,1.2067,-9.7406,1.8658,6.9890,172.7639,0.0000,0.0000,0.0000,0.0000,0.0000,break_time
28899,-0.1869,0.0661,-0.0198,0.3430,1.2259,-9.7447,1.8792,7.0066,172.7433,0.0000,0.0000,0.0000,0.0000,0.0000,break_time
29015,-0.1997,0.0664,0.0255,0.3244,1.1786,-9.7304,1.8809,6.9962,172.7529,0.0000,0.0000,0.0000,0.0000,0.0000,break_time
29131,-0.1959,0.0315,-0.0427,0.3029,1.2235,-9.7172,1.8699,7.0139,172.7387,0.0000,0.0000,0.0000,0.0000,0.0000,break_time
29247,-0.1834,0.0521,0.0207,0.3131,1.2175,-9.7675,1.8651,7.0226,172.7315,0.0000,0.0000,0.0000,0.0000,0.0000,break_time
29363,-0.1919,0.0489,0.0035,0.3448,1.2145,-9.7603,1.8794,7.0293,172.7214,0.0000,0.0000,0.0000,0.0000,0.0000,break_time
29479,-0.2128,0.0658,-0.0217,0.2634,1.2510,-9.7106,1.8456,7.0601,172.7003,0.0000,0.0000,0.0000,0.0000,0.0000,break_time
29595,-0.2296,0.0774,0.0258,0.3573,1.2408,-9.7238,1.8698,7.0808,172.6741,0.0000,0.0000,0.0000,0.0000,0.0000,break_time
29711,-0.2341,0.0443,0.0264,0.3232,1.2277,-9.7100,1.8720,7.0928,172.6618,0.0000,0.0000,0.0000,0.0000,0.0000,nothing
29827,-0.1937,0.0483,-0.0209,0.2861,1.1564,-9.7292,1.8521,7.0612,172.6976,0.0000,0.0000,0.0000,0.0000,0.0000,nothing
29943,-0.1678,0.0853,0.0037,0.3615,1.2037,-9.7693,1.8773,7.0570,172.6951,0.0000,0.0000,0.0000,0.0000,0.0000,nothing
30059,-0.1870,0.0545,-0.0230,0.3705,1.1726,-9.7471,1.9057,7.0368,172.7072,0.0000,0.0000,0.0000,0.0000,0.0000,nothing
30175,-0.1808,0.0522,-0.0255,0.2358,1.2103,-9.7352,1.8529,7.0416,172.7163,0.0000,0.0000,0.0000,0.0000,0.0000,nothing
30291,-0.1629,0.0061,0.0089,0.3651,1.3791,-9.7023,1.8810,7.1458,172.6083,0.0000,0.0000,0.0000,0.0000,0.0000,หนึ่ง
30407,-0.3990,0.0439,0.0434,0.3172,1.1726,-9.7777,1.8774,7.1146,172.6394,0.0000,0.0000,0.0000,0.0000,0.0000,หนึ่ง
30523,-0.1505,0.0346,0.0172,0.0036,1.1493,-9.7926,1.6911,7.0727,172.7259,0.0000,0.0000,0.0000,0.0000,0.0000,หนึ่ง
30639,-0.0428,0.0284,-0.0145,0.2885,1.0972,-9.7286,1.6908,7.0088,172.7882,0.0000,0.0000,0.0000,0.0000,0.0000,หนึ่ง
30755,-0.1497,0.0335,0.0168,0.2873,1.2091,-9.7226,1.6897,7.0165,172.7809,0.0000,0.0000,0.0000,0.0000,0.0000,หนึ่ง
30871,-0.1675,0.0472,-0.0072,0.4226,1.2648,-9.7621,1.7668,7.0525,172.7273,0.0000,0.0000,0.0000,0.0000,0.0000,หนึ่ง
30987,-0.2136,-0.0060,-0.0258,0.1377,1.1325,-9.8938,1.6681,6.9997,172.8024,0.0000,0.0000,0.0000,0.0000,0.0000,break_time
31103,-0.1224,-0.0656,-0.0607,0.1909,1.1098,-9.8190,1.6118,6.9442,172.8694,0.0000,0.0000,0.0000,0.0000,0.0000,break_time
31219,-0.1610,0.0423,0.0082,0.2801,1.3228,-9.6687,1.6150,7.0279,172.7871,0.0000,0.0000,0.0000,0.0000,0.0000,break_time
31335,-0.1913,0.0804,-0.0061,0.4801,1.1690,-9.7645,1.7331,7.0071,172.7796,0.0000,0.0000,0.0000,0.0000,0.0000,break_time
31451,-0.2225,0.1002,-0.0288,0.3328,1.4234,-9.3946,1.7596,7.1626,172.6222,0.0000,0.0000,0.0000,0.0000,0.0000,break_time
31567,-0.2083,0.0965,0.0419,0.0233,1.3264,-9.6562,1.5982,7.2284,172.5952,0.0000,0.0000,0.0000,0.0000,0.0000,break_time
31683,-0.2180,0.0532,0.0619,0.2442,1.1199,-9.8345,1.5796,7.1543,172.6716,0.0000,0.0000,0.0000,0.0000,0.0000,break_time
31799,-0.2131,0.0248,-0.0611,0.8703,1.0427,-9.7687,1.9296,7.0464,172.6916,0.0000,0.0000,0.0000,0.0000,0.0000,break_time
31915,-0.1615,0.0085,-0.0359,0.1951,1.2492,-9.7866,1.8495,7.0692,172.6904,0.0000,0.0000,0.0000,0.0000,0.0000,break_time
32031,0.2645,-0.0545,0.0063,-0.0712,0.6908,-9.9590,1.6205,6.7549,173.0517,0.0000,0.0000,0.0000,0.0000,0.0000,break_time
32147,-0.4566,0.1028,0.0898,0.4807,1.3869,-9.9201,1.7352,6.8766,172.9058,0.0000,0.0000,0.0000,0.0000,0.0000,break_time
32263,-0.2209,0.0848,0.0115,0.4842,1.0714,-9.8082,1.8430,6.8116,172.9412,0.0000,0.0000,0.0000,0.0000,0.0000,break_time
32379,-0.2180,0.0968,-0.0146,0.2951,1.1983,-9.7268,1.8312,6.8324,172.9242,0.0000,0.0000,0.0000,0.0000,0.0000,break_time
32495,-0.1624,0.0390,-0.0194,0.0221,1.3390,-9.6861,1.6622,6.9358,172.8659,0.0000,0.0000,0.0000,0.0000,0.0000,break_time
32611,-0.1861,0.0316,0.0759,0.1634,1.2420,-9.7184,1.5918,6.9703,172.8484,0.0000,0.0000,0.0000,0.0000,0.0000,break_time
32727,-0.1902,0.0479,0.0022,0.7446,1.1050,-9.7711,1.8662,6.9172,172.8331,0.0000,0.0000,0.0000,0.0000,0.0000,break_time
32843,-0.2022,0.0553,-0.0548,0.0227,1.2797,-9.6759,1.6942,6.9788,172.8165,0.0000,0.0000,0.0000,0.0000,0.0000,break_time
32959,-0.1404,0.0260,-0.0706,0.2424,1.1774,-9.7316,1.6665,6.9706,172.8311,0.0000,0.0000,0.0000,0.0000,0.0000,break_time
33075,-0.1911,0.0500,0.0199,0.3496,1.3384,-9.7376,1.7036,7.0557,172.7395,0.0000,0.0000,0.0000,0.0000,0.0000,break_time
33191,-0.2192,0.0523,-0.0085,0.3735,1.2115,-9.7406,1.7511,7.0586,172.7253,0.0000,0.0000,0.0000,0.0000,0.0000,break_time
33307,-0.2770,0.0509,-0.0087,0.0251,1.2277,-9.7034,1.5914,7.0740,172.7474,0.0000,0.0000,0.0000,0.0000,0.0000,break_time
33423,-0.1556,0.0519,-0.0390,0.3364,1.0894,-9.7717,1.6283,7.0023,172.8090,0.0000,0.0000,0.0000,0.0000,0.0000,break_time
33539,-0.1834,0.0517,-0.0300,0.5351,1.2486,-9.7501,1.7774,7.0310,172.7456,0.0000,0.0000,0.0000,0.0000,0.0000,break_time
33655,-0.2301,0.0534,0.0334,0.0204,1.3827,-9.7238,1.6116,7.1374,172.6810,0.0000,0.0000,0.0000,0.0000,0.0000,break_time
33771,-0.2540,0.0986,0.0089,0.6081,1.1391,-9.7633,1.8049,7.0881,172.6834,0.0000,0.0000,0.0000,0.0000,0.0000,break_time
33887,-0.2050,0.0574,0.0525,0.3190,1.1750,-9.7537,1.8104,7.0659,172.7036,0.0000,0.0000,0.0000,0.0000,0.0000,break_time
34003,-0.2065,0.0425,-0.0626,0.0275,1.2929,-9.7424,1.6454,7.1155,172.6948,0.0000,0.0000,0.0000,0.0000,0.0000,nothing
34119,-0.2334,0.0363,0.0348,0.3705,1.1953,-9.7687,1.6966,7.1011,172.6970,0.0000,0.0000,0.0000,0.0000,0.0000,nothing
34235,-0.1988,0.0511,0.0229,0.3364,1.3199,-9.7442,1.7229,7.1620,172.6316,0.0000,0.0000,0.0000,0.0000,0.0000,nothing
34351,-0.1393,0.0626,0.0412,0.1221,1.2827,-9.7023,1.6225,7.1988,172.6187,0.0000,0.0000,0.0000,0.0000,0.0000,nothing
34467,-0.3340,0.0908,0.0439,0.5255,1.2331,-9.7531,1.7665,7.1987,172.5855,0.0000,0.0000,0.0000,0.0000,0.0000,nothing
34583,-0.2240,0.0545,-0.0011,0.2957,1.1511,-9.7741,1.7619,7.1501,172.6339,0.0000,0.0000,0.0000,0.0000,0.0000,nothing
34699,-0.1455,0.0634,-0.0224,0.3717,1.1086,-9.7579,1.8025,7.0827,172.6892,0.0000,0.0000,0.0000,0.0000,0.0000,nothing
34815,-0.1954,0.0673,0.0821,0.1209,1.3941,-9.7352,1.6927,7.1895,172.6119,0.0000,0.0000,0.0000,0.0000,0.0000,nothing
34931,-0.2209,0.0654,-0.0691,0.4376,1.2438,-9.7334,1.7787,7.1981,172.5831,0.0000,0.0000,0.0000,0.0000,0.0000,nothing
35047,-0.2367,0.0620,0.0052,0.3406,1.1624,-9.7681,1.7991,7.1565,172.6185,0.0000,0.0000,0.0000,0.0000,0.0000,nothing
35163,-0.2224,0.0643,0.0180,0.2729,1.1971,-9.7430,1.7785,7.1411,172.6385,0.0000,0.0000,0.0000,0.0000,0.0000,nothing
35279,-0.1779,0.0783,0.0128,0.3071,1.2726,-9.7453,1.7796,7.1706,172.6096,0.0000,0.0000,0.0000,0.0000,0.0000,nothing
35395,-0.2037,0.0547,-0.0053,0.4376,1.2181,-9.7980,1.8558,7.1615,172.5995,0.0000,0.0000,0.0000,0.0000,0.0000,nothing
35511,-0.1801,0.0498,0.0149,0.1263,1.1942,-9.7322,1.7443,7.1450,172.6430,0.0000,0.0000,0.0000,0.0000,0.0000,nothing
35627,-0.1930,0.0579,-0.0401,0.3705,1.2408,-9.7902,1.7850,7.1524,172.6260,0.0000,0.0000,0.0000,0.0000,0.0000,nothing
35743,-0.1699,0.2361,0.0076,0.2568,1.3139,-9.8238,1.7547,7.1990,172.5880,0.0000,0.0000,0.0000,0.0000,0.0000,หนึ่ง
35859,-0.0729,0.1850,0.0348,0.3358,1.1505,-9.7783,1.7746,7.1497,172.6311,0.0000,0.0000,0.0000,0.0000,0.0000,หนึ่ง
35975,-0.1939,0.0526,0.0169,0.3143,1.2756,-9.7783,1.7797,7.1776,172.6028,0.0000,0.0000,0.0000,0.0000,0.0000,หนึ่ง
36091,-0.1892,0.0612,0.0251,0.3562,1.3199,-9.6927,1.8101,7.2345,172.5402,0.0000,0.0000,0.0000,0.0000,0.0000,หนึ่ง
36207,-0.2005,0.0555,-0.0424,0.3250,1.2307,-9.7753,1.8180,7.2282,172.5443,0.0000,0.0000,0.0000,0.0000,0.0000,หนึ่ง
36323,-0.2087,0.0582,-0.0086,0.3334,1.2648,-9.7058,1.8313,7.2473,172.5225,0.0000,0.0000,0.0000,0.0000,0.0000,หนึ่ง
36439,-0.2872,0.1140,0.0538,0.3819,1.5557,-9.6825,1.8711,7.4342,172.3313,0.0000,0.0000,0.0000,0.0000,0.0000,หนึ่ง
36555,-0.2701,0.1711,-0.0249,0.1987,1.1253,-9.6334,1.8023,7.3579,172.4222,0.0000,0.0000,0.0000,0.0000,0.0000,nothing
36671,-0.1433,0.0334,0.0168,0.3879,1.0954,-9.7747,1.8480,7.2609,172.5052,0.0000,0.0000,0.0000,0.0000,0.0000,nothing
36787,-0.1652,0.0354,0.0035,0.3741,1.1792,-9.7872,1.8807,7.2212,172.5354,0.0000,0.0000,0.0000,0.0000,0.0000,nothing
36903,-0.1899,0.0390,-0.0226,0.3358,1.2600,-9.7232,1.8887,7.2369,172.5181,0.0000,0.0000,0.0000,0.0000,0.0000,nothing
37019,-0.1909,0.0646,-0.0436,0.3424,1.3157,-9.7328,1.8995,7.2826,172.4711,0.0000,0.0000,0.0000,0.0000,0.0000,nothing
37135,-0.1977,0.0564,-0.0019,0.2053,1.2420,-9.7088,1.8300,7.2833,172.4879,0.0000,0.0000,0.0000,0.0000,0.0000,nothing
37251,-0.2815,0.0639,-0.0089,0.5980,1.1756,-9.7914,1.9948,7.2383,172.4890,0.0000,0.0000,0.0000,0.0000,0.0000,nothing
37367,-0.2402,0.0858,0.0210,0.2322,1.2666,-9.7220,1.9312,7.2566,172.4882,0.0000,0.0000,0.0000,0.0000,0.0000,nothing
37483,-0.2045,0.0961,0.0018,0.3268,1.1780,-9.7543,1.9286,7.2191,172.5251,0.0000,0.0000,0.0000,0.0000,0.0000,nothing
37599,-0.2046,0.0721,-0.0080,0.3448,1.2720,-9.7442,1.9367,7.2405,172.5023,0.0000,0.0000,0.0000,0.0000,0.0000,nothing
37715,-0.1973,0.0348,0.0260,0.3376,1.2564,-9.7495,1.9397,7.2503,172.4920,0.0000,0.0000,0.0000,0.0000,0.0000,nothing
37831,-0.1789,0.0727,-0.0015,0.3567,1.2157,-9.7663,1.9533,7.2344,172.5038,0.0000,0.0000,0.0000,0.0000,0.0000,nothing
37947,-0.2188,0.0552,0.0112,0.3370,1.0852,-9.7334,1.9551,7.1470,172.5878,0.0000,0.0000,0.0000,0.0000,0.0000,nothing
38063,-0.2249,0.0645,0.0221,0.3011,1.2396,-9.7741,1.9346,7.1548,172.5856,0.0000,0.0000,0.0000,0.0000,0.0000,nothing
38179,-0.2063,0.0567,0.0158,0.3143,1.2247,-9.7250,1.9248,7.1567,172.5864,0.0000,0.0000,0.0000,0.0000,0.0000,nothing
38295,-0.2275,0.0781,0.0481,0.3472,1.2390,-9.7430,1.9347,7.1653,172.5754,0.0000,0.0000,0.0000,0.0000,0.0000,nothing
38411,-0.1621,0.0739,0.0123,0.2969,1.1774,-9.7232,1.9149,7.1390,172.6061,0.0000,0.0000,0.0000,0.0000,0.0000,nothing
38527,-0.1765,0.0454,-0.0169,0.3208,1.2259,-9.7609,1.9102,7.1405,172.6058,0.0000,0.0000,0.0000,0.0000,0.0000,nothing
38643,-0.1865,0.0401,0.0158,0.3346,1.2432,-9.7286,1.9146,7.1543,172.5914,0.0000,0.0000,0.0000,0.0000,0.0000,nothing
38759,-0.2030,0.0440,-0.0459,0.3196,1.2259,-9.7651,1.9091,7.1540,172.5931,0.0000,0.0000,0.0000,0.0000,0.0000,nothing
38875,-0.1979,0.0703,0.0344,0.3825,1.2253,-9.7453,1.9412,7.1547,172.5840,0.0000,0.0000,0.0000,0.0000,0.0000,nothing
38991,-0.2345,0.0654,-0.0620,0.5555,1.1924,-9.7735,2.0704,7.1338,172.5688,0.0000,0.0000,0.0000,0.0000,0.0000,nothing
39107,-0.1821,0.0669,0.0061,0.1335,1.2983,-9.7316,1.9414,7.1803,172.5592,0.0000,0.0000,0.0000,0.0000,0.0000,nothing
39223,-0.1506,0.0646,0.0597,0.3017,1.2223,-9.7447,1.9232,7.1769,172.5673,0.0000,0.0000,0.0000,0.0000,0.0000,nothing
39339,-0.2142,0.0367,-0.0108,0.0227,1.2630,-9.7394,1.7443,7.1984,172.5911,0.0000,0.0000,0.0000,0.0000,0.0000,nothing
39455,-0.1817,0.0728,0.0427,0.3286,1.2384,-9.7040,1.7622,7.2054,172.5800,0.0000,0.0000,0.0000,0.0000,0.0000,nothing
39571,-0.1738,0.0330,-0.0260,0.4956,1.2223,-9.7866,1.8742,7.1959,172.5615,0.0000,0.0000,0.0000,0.0000,0.0000,nothing
39687,-0.1763,0.0776,-0.0031,0.2083,1.1708,-9.6819,1.8096,7.1659,172.6068,0.0000,0.0000,0.0000,0.0000,0.0000,nothing
39803,-0.1726,0.0469,0.0294,0.4753,1.1660,-9.8010,1.9048,7.1269,172.6204,0.0000,0.0000,0.0000,0.0000,0.0000,nothing
39919,-0.1821,0.0414,-0.0176,0.0904,1.2073,-9.6867,1.7682,7.1248,172.6568,0.0000,0.0000,0.0000,0.0000,0.0000,nothing
40035,-0.1485,0.0658,0.0372,0.4076,1.1570,-9.7609,1.8290,7.0878,172.6777,0.0000,0.0000,0.0000,0.0000,0.0000,nothing
40151,-0.1693,0.0292,-0.0040,0.5064,1.2073,-9.7615,1.9411,7.0832,172.6530,0.0000,0.0000,0.0000,0.0000,0.0000,nothing
40267,-0.1748,0.0188,-0.0145,0.3573,1.2289,-9.8268,1.9537,7.0873,172.6457,0.0000,0.0000,0.0000,0.0000,0.0000,nothing
40383,-0.1883,0.0552,0.0251,0.2370,1.1343,-9.7166,1.8974,7.0444,172.7020,0.0000,0.0000,0.0000,0.0000,0.0000,nothing
40499,-0.1652,0.0799,-0.0150,0.3107,1.2953,-9.7609,1.8884,7.0956,172.6549,0.0000,0.0000,0.0000,0.0000,0.0000,nothing
40615,-0.1881,0.0916,0.0398,0.3208,1.2570,-9.7298,1.8868,7.1218,172.6300,0.0000,0.0000,0.0000,0.0000,0.0000,nothing
40731,-0.2050,0.0763,0.0209,0.2310,1.2785,-9.7495,1.8327,7.1565,172.6101,0.0000,0.0000,0.0000,0.0000,0.0000,nothing
40847,-0.2469,0.1050,-0.0022,0.3250,1.2438,-9.7418,1.8390,7.1681,172.5974,0.0000,0.0000,0.0000,0.0000,0.0000,nothing
40963,-0.2052,0.0473,-0.0130,0.3795,1.2247,-9.7376,1.8765,7.1676,172.5883,0.0000,0.0000,0.0000,0.0000,0.0000,nothing
41079,-0.2867,-0.0390,0.0464,0.4238,1.2337,-9.7962,1.9349,7.1680,172.5728,0.0000,0.0000,0.0000,0.0000,0.0000,nothing
41195,-0.2173,0.0511,-0.0434,0.1814,1.0756,-9.7561,1.8474,7.0804,172.6801,0.0000,0.0000,0.0000,0.0000,0.0000,nothing
41311,-0.1429,0.0904,-0.0164,0.3478,1.2917,-9.7358,1.8655,7.1277,172.6298,0.0000,0.0000,0.0000,0.0000,0.0000,nothing
41427,-0.2001,0.0375,0.0457,0.3388,1.2223,-9.7028,1.8773,7.1324,172.6222,0.0000,0.0000,0.0000,0.0000,0.0000,nothing
41543,-0.2240,0.0732,-0.0502,0.3214,1.2444,-9.7519,1.8768,7.1460,172.6091,0.0000,0.0000,0.0000,0.0000,0.0000,nothing
41659,-0.2166,0.0746,0.0359,0.3017,1.2540,-9.7142,1.8656,7.1666,172.5921,0.0000,0.0000,0.0000,0.0000,0.0000,nothing
41775,-0.2195,0.0592,-0.0065,0.3041,1.2295,-9.7262,1.8567,7.1700,172.5910,0.0000,0.0000,0.0000,0.0000,0.0000,nothing
41891,-0.1876,0.0618,0.0172,0.3597,1.1798,-9.7256,1.8813,7.1443,172.6097,0.0000,0.0000,0.0000,0.0000,0.0000,nothing
42007,-0.1757,0.0755,0.0170,0.3113,1.2313,-9.7639,1.8743,7.1482,172.6077,0.0000,0.0000,0.0000,0.0000,0.0000,nothing
42123,-0.2061,0.0536,-0.0274,0.3208,1.2139,-9.7400,1.8741,7.1434,172.6124,0.0000,0.0000,0.0000,0.0000,0.0000,nothing
42239,-0.2079,0.0781,0.0843,0.3220,1.1816,-9.7447,1.8746,7.1201,172.6348,0.0000,0.0000,0.0000,0.0000,0.0000,nothing
42355,-0.1772,0.0635,-0.0089,0.2915,1.1918,-9.7663,1.8568,7.1035,172.6554,0.0000,0.0000,0.0000,0.0000,0.0000,nothing
42471,-0.1956,0.0568,-0.0372,0.3591,1.1768,-9.7232,1.8811,7.0828,172.6692,0.0000,0.0000,0.0000,0.0000,0.0000,nothing
42587,-0.1779,0.0379,0.0469,0.3466,1.2181,-9.7442,1.8951,7.0866,172.6618,0.0000,0.0000,0.0000,0.0000,0.0000,nothing
42703,-0.2038,0.0664,-0.0277,0.3101,1.2480,-9.7442,1.8864,7.1075,172.6440,0.0000,0.0000,0.0000,0.0000,0.0000,nothing
42819,-0.2087,0.0709,0.0063,0.3526,1.2031,-9.7639,1.9030,7.0987,172.6481,0.0000,0.0000,0.0000,0.0000,0.0000,nothing
42935,-0.1820,0.0796,-0.0101,0.3352,1.2426,-9.7280,1.9085,7.1163,172.6296,0.0000,0.0000,0.0000,0.0000,0.0000,nothing
43051,-0.1990,0.0653,-0.0269,0.2765,1.2349,-9.7328,1.8791,7.1275,172.6265,0.0000,0.0000,0.0000,0.0000,0.0000,nothing
43167,-0.2136,0.0784,-0.0172,0.3807,1.1840,-9.7376,1.9134,7.1075,172.6369,0.0000,0.0000,0.0000,0.0000,0.0000,nothing
43283,-0.1674,0.0653,-0.0072,0.3268,1.2223,-9.7011,1.9135,7.1144,172.6302,0.0000,0.0000,0.0000,0.0000,0.0000,nothing
43399,-0.2060,0.0757,-0.0056,0.3550,1.2187,-9.7184,1.9297,7.1173,172.6232,0.0000,0.0000,0.0000,0.0000,0.0000,nothing
43515,-0.1735,0.1025,0.0026,0.5758,1.1307,-9.7633,2.0724,7.0651,172.6343,0.0000,0.0000,0.0000,0.0000,0.0000,nothing
43631,-0.1581,0.0965,-0.0179,0.2987,1.1385,-9.7627,2.0392,7.0234,172.6837,0.0000,0.0000,0.0000,0.0000,0.0000,nothing
43747,-0.1745,0.0348,0.0105,0.3675,1.0271,-9.7088,2.0508,6.9250,172.7749,0.0000,0.0000,0.0000,0.0000,0.0000,nothing
43863,-0.0789,-0.0206,0.0305,0.1903,1.0882,-9.8489,1.9550,6.8624,172.8620,0.0000,0.0000,0.0000,0.0000,0.0000,nothing
43979,-0.1581,0.0038,0.0020,0.6465,0.9751,-9.7364,2.1372,6.7473,172.9193,0.0000,0.0000,0.0000,0.0000,0.0000,nothing
44095,-0.2031,0.0530,-0.0635,0.3418,1.1989,-9.7980,2.1217,6.7699,172.9024,0.0000,0.0000,0.0000,0.0000,0.0000,nothing
44211,-0.1994,0.0319,-0.0169,0.0186,1.2025,-9.7160,1.9211,6.7988,172.9326,0.0000,0.0000,0.0000,0.0000,0.0000,nothing
44327,-0.1804,0.0552,0.0087,0.4220,1.2115,-9.7735,1.9745,6.8250,172.8925,0.0000,0.0000,0.0000,0.0000,0.0000,nothing
44443,-0.2187,0.0410,-0.0330,0.4603,1.2684,-9.7394,2.0454,6.8837,172.8160,0.0000,0.0000,0.0000,0.0000,0.0000,nothing
44559,-0.2318,0.0838,0.0450,0.2634,1.2325,-9.7406,1.9946,6.9162,172.7992,0.0000,0.0000,0.0000,0.0000,0.0000,nothing
44675,-0.1977,0.0623,-0.0097,0.1981,1.1786,-9.7262,1.9112,6.9155,172.8228,0.0000,0.0000,0.0000,0.0000,0.0000,nothing
44791,-0.1885,0.0675,-0.0074,0.2927,1.1768,-9.7501,1.8908,6.9118,172.8318,0.0000,0.0000,0.0000,0.0000,0.0000,nothing
44907,-0.1850,0.0454,-0.0329,0.2394,1.2325,-9.7525,1.8412,6.9407,172.8169,0.0000,0.0000,0.0000,0.0000,0.0000,nothing
45023,-0.1658,0.0701,-0.0408,0.3328,1.3043,-9.7519,1.8508,7.0081,172.7492,0.0000,0.0000,0.0000,0.0000,0.0000,nothing
45139,-0.1975,0.0837,0.0308,0.3274,1.2522,-9.7537,1.8564,7.0385,172.7184,0.0000,0.0000,0.0000,0.0000,0.0000,nothing
45255,-0.2256,0.0727,0.0128,0.3633,1.2319,-9.7220,1.8831,7.0563,172.6943,0.0000,0.0000,0.0000,0.0000,0.0000,nothing
45371,-0.2015,0.0616,0.0128,0.2891,1.2361,-9.7453,1.8633,7.0732,172.6831,0.0000,0.0000,0.0000,0.0000,0.0000,nothing
45487,-0.1993,0.0650,-0.0019,0.3651,1.1678,-9.7340,1.8903,7.0496,172.6989,0.0000,0.0000,0.0000,0.0000,0.0000,nothing
45603,-0.2424,0.0754,0.0264,0.3484,1.2307,-9.7412,1.9044,7.0642,172.6811,0.0000,0.0000,0.0000,0.0000,0.0000,nothing
45719,-0.1641,0.1318,0.0416,0.3334,1.1576,-9.7394,1.9087,7.0353,172.7079,0.0000,0.0000,0.0000,0.0000,0.0000,nothing
45835,-0.2368,0.0894,0.0320,0.3657,1.2432,-9.7118,1.9317,7.0606,172.6773,0.0000,0.0000,0.0000,0.0000,0.0000,nothing
45951,-0.1733,0.0882,-0.0660,0.3460,1.2127,-9.7304,1.9406,7.0646,172.6711,0.0000,0.0000,0.0000,0.0000,0.0000,nothing
46067,-0.2083,0.0386,0.0544,0.2987,1.1918,-9.7430,1.9208,7.0552,172.6855,0.0000,0.0000,0.0000,0.0000,0.0000,nothing
46183,-0.1915,0.0353,0.0048,0.3603,1.1947,-9.7819,1.9382,7.0455,172.6901,0.0000,0.0000,0.0000,0.0000,0.0000,nothing
46299,-0.1866,0.0416,-0.0213,0.2131,1.2121,-9.7555,1.8685,7.0491,172.7050,0.0000,0.0000,0.0000,0.0000,0.0000,nothing
46415,-0.1779,0.0284,-0.0270,0.3711,1.2343,-9.7998,1.8970,7.0616,172.6855,0.0000,0.0000,0.0000,0.0000,0.0000,nothing
46531,-0.2120,0.0444,0.0376,0.2969,1.2115,-9.6837,1.8816,7.0682,172.6832,0.0000,0.0000,0.0000,0.0000,0.0000,nothing
46647,-0.1824,0.0679,-0.0180,0.3699,1.2319,-9.7693,1.9087,7.0796,172.6651,0.0000,0.0000,0.0000,0.0000,0.0000,nothing
46763,-0.2109,0.0714,-0.0145,0.2921,1.2468,-9.7058,1.8889,7.1032,172.6474,0.0000,0.0000,0.0000,0.0000,0.0000,nothing
46879,-0.1887,0.0622,-0.0049,0.3735,1.2031,-9.7741,1.9173,7.0941,172.6488,0.0000,0.0000,0.0000,0.0000,0.0000,nothing
46995,-0.2016,0.0468,-0.0228,0.3250,1.2355,-9.7262,1.9154,7.1082,172.6357,0.0000,0.0000,0.0000,0.0000,0.0000,nothing
47111,-0.2288,0.0491,-0.0262,0.3813,1.2049,-9.7543,1.9461,7.1010,172.6345,0.0000,0.0000,0.0000,0.0000,0.0000,nothing
47227,-0.2143,0.0608,0.0331,0.3633,1.1918,-9.7705,1.9629,7.0859,172.6446,0.0000,0.0000,0.0000,0.0000,0.0000,nothing
47343,-0.1849,0.0695,0.0155,0.2382,1.2079,-9.7214,1.9061,7.0854,172.6602,0.0000,0.0000,0.0000,0.0000,0.0000,nothing
47459,-0.2087,0.0473,-0.0800,0.2795,1.2229,-9.7723,1.8780,7.0899,172.6632,0.0000,0.0000,0.0000,0.0000,0.0000,nothing
47575,-0.2244,0.0532,0.1003,0.3903,1.1798,-9.7549,1.9177,7.0699,172.6720,0.0000,0.0000,0.0000,0.0000,0.0000,nothing
47691,-0.2603,0.0589,-0.0132,0.2981,1.2522,-9.7513,1.8995,7.0944,172.6532,0.0000,0.0000,0.0000,0.0000,0.0000,nothing
47807,-0.2019,0.0472,-0.0314,0.2747,1.1564,-9.7837,1.8693,7.0587,172.6955,0.0000,0.0000,0.0000,0.0000,0.0000,nothing
47923,-0.1689,0.0577,-0.0192,0.0407,1.2414,-9.7436,1.7062,7.0792,172.7160,0.0000,0.0000,0.0000,0.0000,0.0000,nothing
48039,-0.1797,0.0222,0.0199,0.3358,1.1127,-9.7477,1.7316,7.0222,172.7654,0.0000,0.0000,0.0000,0.0000,0.0000,nothing
48155,-0.2144,0.0083,0.0244,0.6806,1.3169,-9.7543,1.9547,7.0877,172.6450,0.0000,0.0000,0.0000,0.0000,0.0000,nothing
48271,-0.2248,0.0537,-0.0196,0.0186,1.2630,-9.6999,1.7710,7.1210,172.6599,0.0000,0.0000,0.0000,0.0000,0.0000,nothing
48387,-0.2416,0.0327,0.0195,0.1556,1.2163,-9.7914,1.6839,7.1169,172.6845,0.0000,0.0000,0.0000,0.0000,0.0000,nothing
48503,-0.2131,0.0649,0.0131,0.4232,1.2223,-9.7519,1.7621,7.1190,172.6639,0.0000,0.0000,0.0000,0.0000,0.0000,nothing
48619,-0.1974,0.0589,0.0573,0.3454,1.2133,-9.7130,1.7879,7.1187,172.6579,0.0000,0.0000,0.0000,0.0000,0.0000,nothing
48735,-0.2286,0.0500,-0.0562,0.3113,1.1481,-9.7884,1.7900,7.0753,172.6995,0.0000,0.0000,0.0000,0.0000,0.0000,nothing
48851,-0.2030,0.0504,0.0087,0.2664,1.2546,-9.7370,1.7665,7.1017,172.6797,0.0000,0.0000,0.0000,0.0000,0.0000,nothing
48967,-0.2158,0.0522,-0.0110,0.4872,1.2115,-9.7855,1.8731,7.0966,172.6579,0.0000,0.0000,0.0000,0.0000,0.0000,nothing
49083,-0.1951,0.0461,0.0206,0.0844,1.2115,-9.7154,1.7358,7.0979,172.6909,0.0000,0.0000,0.0000,0.0000,0.0000,nothing
49199,-0.2112,0.0732,0.0633,0.3562,1.2049,-9.7681,1.7695,7.0908,172.6895,0.0000,0.0000,0.0000,0.0000,0.0000,nothing
49315,-0.2146,0.0356,-0.0146,0.6387,1.1421,-9.7495,1.9649,7.0488,172.6798,0.0000,0.0000,0.0000,0.0000,0.0000,nothing
49431,-0.2035,0.0785,0.0244,0.1544,1.2989,-9.7358,1.8586,7.1038,172.6547,0.0000,0.0000,0.0000,0.0000,0.0000,nothing
49547,-0.1787,0.0991,0.0449,0.1143,1.1816,-9.7603,1.7393,7.0838,172.7037,0.0000,0.0000,0.0000,0.0000,0.0000,nothing
49663,-0.1902,0.0727,-0.0668,0.3603,1.2127,-9.7477,1.7755,7.0841,172.6946,0.0000,0.0000,0.0000,0.0000,0.0000,nothing
49779,-0.1919,0.0555,0.0224,0.5154,1.1930,-9.7489,1.8983,7.0725,172.6746,0.0000,0.0000,0.0000,0.0000,0.0000,nothing
49895,-0.1756,0.0379,-0.0324,0.2071,1.2007,-9.7412,1.8295,7.0679,172.6969,0.0000,0.0000,0.0000,0.0000,0.0000,nothing
50011,-0.1919,0.0717,0.0095,0.2945,1.2768,-9.7567,1.8179,7.1063,172.6625,0.0000,0.0000,0.0000,0.0000,0.0000,nothing
50127,-0.2292,0.1134,0.0095,0.4214,1.2929,-9.7286,1.8820,7.1520,172.6020,0.0000,0.0000,0.0000,0.0000,0.0000,nothing
50243,-0.2312,0.0694,0.0150,0.3328,1.2133,-9.7394,1.8880,7.1465,172.6058,0.0000,0.0000,0.0000,0.0000,0.0000,nothing
50359,-0.2225,0.0747,-0.0364,0.4028,1.1816,-9.6921,1.9352,7.1265,172.6128,0.0000,0.0000,0.0000,0.0000,0.0000,nothing
50475,-0.2181,0.0337,0.0282,0.2119,1.2127,-9.7430,1.8653,7.1232,172.6341,0.0000,0.0000,0.0000,0.0000,0.0000,nothing
50591,-0.1801,0.0421,0.0106,0.5226,1.2151,-9.7298,1.9838,7.1219,172.6042,0.0000,0.0000,0.0000,0.0000,0.0000,nothing
50707,-0.2348,0.0901,0.0222,0.2346,1.2732,-9.7280,1.9225,7.1551,172.5885,0.0000,0.0000,0.0000,0.0000,0.0000,nothing
50823,-0.2270,0.0669,-0.0311,0.3178,1.2175,-9.7436,1.9156,7.1515,172.5938,0.0000,0.0000,0.0000,0.0000,0.0000,หนึ่ง
50939,-0.2243,0.1440,-0.0277,0.3855,0.7081,-9.4676,1.9556,6.8723,172.8523,0.0000,0.0000,0.0000,0.0000,0.0000,หนึ่ง
51055,-0.1028,-0.0015,-0.0149,0.5327,1.3809,-9.7076,2.0714,6.9939,172.7029,0.0000,0.0000,0.0000,0.0000,0.0000,หนึ่ง
51171,-0.3500,0.0947,0.0083,0.3005,1.4144,-9.7567,2.0386,7.1198,172.5911,0.0000,0.0000,0.0000,0.0000,0.0000,หนึ่ง
51287,-0.3422,0.1362,-0.0048,0.3160,1.2283,-9.7076,2.0198,7.1286,172.5879,0.0000,0.0000,0.0000,0.0000,0.0000,หนึ่ง
51403,-0.1984,0.0646,0.0198,0.3238,1.1331,-9.7645,2.0065,7.0771,172.6412,0.0000,0.0000,0.0000,0.0000,0.0000,หนึ่ง
51519,-0.1772,0.0449,0.0044,0.3208,1.1582,-9.7603,1.9927,7.0457,172.6752,0.0000,0.0000,0.0000,0.0000,0.0000,หนึ่ง
51635,-0.1403,0.0320,0.0121,0.3514,1.2067,-9.7412,1.9985,7.0468,172.6725,0.0000,0.0000,0.0000,0.0000,0.0000,หนึ่ง
51751,-0.1464,0.0289,-0.0206,0.3292,1.2390,-9.7447,1.9906,7.0664,172.6558,0.0000,0.0000,0.0000,0.0000,0.0000,หนึ่ง
51867,-0.2234,0.0254,-0.0372,0.3430,1.2528,-9.7501,1.9913,7.0916,172.6314,0.0000,0.0000,0.0000,0.0000,0.0000,หนึ่ง
51983,-0.2298,0.0678,0.1136,0.3131,1.2546,-9.7711,1.9741,7.1138,172.6146,0.0000,0.0000,0.0000,0.0000,0.0000,หนึ่ง
52099,-0.1449,0.0465,-0.0731,0.2729,1.0918,-9.7052,1.9370,7.0443,172.6916,0.0000,0.0000,0.0000,0.0000,0.0000,หนึ่ง
52215,0.0329,0.0852,0.0311,0.3502,1.0894,-9.6921,1.9489,6.9811,172.7493,0.0000,0.0000,0.0000,0.0000,0.0000,break_time
52331,-0.3415,0.0917,0.0305,0.2987,1.5856,-9.6837,1.9284,7.2127,172.5313,0.0000,0.0000,0.0000,0.0000,0.0000,break_time
52447,-0.3686,0.1261,0.0626,0.2245,1.2714,-9.7543,1.8661,7.2339,172.5267,0.0000,0.0000,0.0000,0.0000,0.0000,break_time
52563,-0.2427,0.0815,0.0581,0.2993,1.1044,-9.7436,1.8543,7.1569,172.6044,0.0000,0.0000,0.0000,0.0000,0.0000,break_time
52679,-0.1603,0.0751,0.0380,0.3226,1.1307,-9.7453,1.8573,7.1026,172.6561,0.0000,0.0000,0.0000,0.0000,0.0000,break_time
52795,-0.1502,0.0386,0.0609,0.2634,1.1750,-9.7483,1.8252,7.0794,172.6868,0.0000,0.0000,0.0000,0.0000,0.0000,break_time
52911,-0.1805,0.0724,-0.0517,0.3053,1.2474,-9.7633,1.8203,7.0993,172.6688,0.0000,0.0000,0.0000,0.0000,0.0000,break_time
53027,-0.1794,0.0526,0.0725,0.3310,1.2007,-9.7406,1.8314,7.0917,172.6733,0.0000,0.0000,0.0000,0.0000,0.0000,break_time
53143,-0.1733,0.0495,-0.0419,0.2993,1.2432,-9.7567,1.8226,7.1084,172.6593,0.0000,0.0000,0.0000,0.0000,0.0000,break_time
53259,-0.1639,0.0780,0.0170,0.3406,1.2139,-9.7561,1.8387,7.1064,172.6572,0.0000,0.0000,0.0000,0.0000,0.0000,break_time
53375,-0.1985,0.0545,-0.0153,0.3089,1.2366,-9.7184,1.8354,7.1205,172.6443,0.0000,0.0000,0.0000,0.0000,0.0000,break_time
53491,-0.2034,0.0447,-0.0085,0.3023,1.2564,-9.7334,1.8283,7.1436,172.6237,0.0000,0.0000,0.0000,0.0000,0.0000,break_time
53607,-0.1866,0.0924,-0.0149,0.3089,1.2384,-9.7034,1.8263,7.1562,172.6120,0.0000,0.0000,0.0000,0.0000,0.0000,break_time
53723,-0.2281,0.0510,0.0125,0.3502,1.2121,-9.7609,1.8476,7.1480,172.6147,0.0000,0.0000,0.0000,0.0000,0.0000,break_time
53839,-0.2067,0.0667,-0.0623,0.2807,1.2271,-9.7184,1.8271,7.1525,172.6154,0.0000,0.0000,0.0000,0.0000,0.0000,break_time
53955,-0.2251,0.0504,0.0600,0.3502,1.2217,-9.7244,1.8490,7.1529,172.6096,0.0000,0.0000,0.0000,0.0000,0.0000,break_time
54071,-0.2072,0.0785,0.0519,0.2700,1.2414,-9.7070,1.8222,7.1661,172.6035,0.0000,0.0000,0.0000,0.0000,0.0000,break_time
54187,-0.2206,0.0537,0.0188,0.3376,1.1876,-9.7579,1.8367,7.1429,172.6223,0.0000,0.0000,0.0000,0.0000,0.0000,break_time
54303,-0.2189,0.0642,0.0165,0.3250,1.2097,-9.7364,1.8427,7.1365,172.6270,0.0000,0.0000,0.0000,0.0000,0.0000,break_time
54419,-0.2418,0.0765,0.0574,0.2011,1.2085,-9.7400,1.7758,7.1300,172.6499,0.0000,0.0000,0.0000,0.0000,0.0000,break_time
54535,-0.1317,0.0650,-0.0237,0.3148,1.0720,-9.7621,1.7819,7.0433,172.7326,0.0000,0.0000,0.0000,0.0000,0.0000,break_time
54651,-0.1211,0.0627,-0.0810,0.3861,1.4372,-9.7729,1.8279,7.1758,172.5927,0.0000,0.0000,0.0000,0.0000,0.0000,break_time
54767,-0.2669,0.1287,0.0589,0.3011,1.3983,-9.5041,1.8247,7.2924,172.4804,0.0000,0.0000,0.0000,0.0000,0.0000,break_time
54883,-0.2979,0.1102,0.0646,0.3645,1.1618,-9.7687,1.8546,7.2408,172.5230,0.0000,0.0000,0.0000,0.0000,0.0000,break_time
54999,-0.2566,0.0402,-0.0025,0.3041,1.1648,-9.7771,1.8460,7.1956,172.5690,0.0000,0.0000,0.0000,0.0000,0.0000,break_time
55115,-0.2213,0.0943,-0.0371,0.3472,1.4444,-9.7280,1.8636,7.3204,172.4436,0.0000,0.0000,0.0000,0.0000,0.0000,break_time
55231,-0.1936,0.0886,-0.0177,0.4842,0.9870,-9.6849,1.9615,7.1705,172.5633,0.0000,0.0000,0.0000,0.0000,0.0000,nothing
55347,-0.0992,0.0198,0.0135,0.3579,1.1654,-9.8573,1.9720,7.1268,172.6026,0.0000,0.0000,0.0000,0.0000,0.0000,nothing
55463,-0.1686,0.0462,-0.0110,0.3532,1.2570,-9.7112,1.9813,7.1511,172.5767,0.0000,0.0000,0.0000,0.0000,0.0000,nothing
55579,-0.2038,0.0716,0.0191,0.3346,1.2588,-9.7052,1.9790,7.1746,172.5547,0.0000,0.0000,0.0000,0.0000,0.0000,nothing
55695,-0.2243,0.0631,0.0076,0.3143,1.2079,-9.7621,1.9641,7.1621,172.5708,0.0000,0.0000,0.0000,0.0000,0.0000,nothing
55811,-0.2179,0.0853,0.0139,0.2777,1.2121,-9.7477,1.9296,7.1544,172.5873,0.0000,0.0000,0.0000,0.0000,0.0000,nothing
55927,-0.1731,0.0830,-0.0282,0.3148,1.1971,-9.7292,1.9206,7.1401,172.6035,0.0000,0.0000,0.0000,0.0000,0.0000,nothing
56043,-0.1760,0.0498,0.0072,0.3436,1.2372,-9.7328,1.9291,7.1501,172.5916,0.0000,0.0000,0.0000,0.0000,0.0000,nothing
56159,-0.2159,0.0483,0.0303,0.3508,1.2277,-9.7232,1.9412,7.1543,172.5844,0.0000,0.0000,0.0000,0.0000,0.0000,nothing
56275,-0.1996,0.0462,0.0344,0.3310,1.2402,-9.7465,1.9400,7.1636,172.5757,0.0000,0.0000,0.0000,0.0000,0.0000,nothing
56391,-0.2095,0.0315,-0.0518,0.3591,1.2498,-9.7328,1.9556,7.1785,172.5572,0.0000,0.0000,0.0000,0.0000,0.0000,nothing
56507,-0.1954,0.0653,0.0226,0.2891,1.2372,-9.7555,1.9284,7.1832,172.5599,0.0000,0.0000,0.0000,0.0000,0.0000,nothing
56623,-0.2226,0.0605,0.0229,0.3484,1.1971,-9.7729,1.9382,7.1627,172.5770,0.0000,0.0000,0.0000,0.0000,0.0000,nothing
56739,-0.2143,0.0481,0.0183,0.3208,1.2343,-9.7537,1.9313,7.1673,172.5744,0.0000,0.0000,0.0000,0.0000,0.0000,nothing
56855,-0.1883,0.0522,-0.0145,0.3310,1.2277,-9.7424,1.9313,7.1684,172.5734,0.0000,0.0000,0.0000,0.0000,0.0000,nothing
56971,-0.2071,0.0709,0.0376,0.3137,1.2295,-9.7238,1.9214,7.1718,172.5727,0.0000,0.0000,0.0000,0.0000,0.0000,nothing
57087,-0.2004,0.0525,-0.0075,0.3286,1.2181,-9.7412,1.9210,7.1669,172.5775,0.0000,0.0000,0.0000,0.0000,0.0000,nothing
57203,-0.2014,0.0676,-0.0598,0.2915,1.2253,-9.7633,1.8986,7.1652,172.5849,0.0000,0.0000,0.0000,0.0000,0.0000,nothing
57319,-0.2097,0.0564,-0.0185,0.3220,1.2031,-9.7735,1.8960,7.1501,172.6003,0.0000,0.0000,0.0000,0.0000,0.0000,nothing
57435,-0.2001,0.0608,0.0022,0.3137,1.2187,-9.7388,1.8894,7.1480,172.6040,0.0000,0.0000,0.0000,0.0000,0.0000,nothing
57551,-0.1892,0.0874,0.0022,0.3298,1.2486,-9.7603,1.8925,7.1618,172.5898,0.0000,0.0000,0.0000,0.0000,0.0000,nothing
57667,-0.2277,0.0747,0.0631,0.2897,1.2319,-9.7310,1.8724,7.1668,172.5901,0.0000,0.0000,0.0000,0.0000,0.0000,nothing
57783,-0.2012,0.0605,-0.0499,0.2987,1.2247,-9.7322,1.8596,7.1670,172.5932,0.0000,0.0000,0.0000,0.0000,0.0000,nothing
57899,-0.2421,0.0878,0.0001,0.3041,1.2307,-9.7292,1.8513,7.1709,172.5916,0.0000,0.0000,0.0000,0.0000,0.0000,nothing
58015,-0.2060,0.0783,0.0083,0.3520,1.2085,-9.7304,1.8717,7.1613,172.5956,0.0000,0.0000,0.0000,0.0000,0.0000,nothing
58131,-0.1445,0.1348,0.0022,0.4896,0.8374,-9.3533,1.9788,6.9642,172.7575,0.0000,0.0000,0.0000,0.0000,0.0000,สอง
58247,-0.0409,0.0398,0.0176,0.4328,1.4060,-9.6526,2.0349,7.0955,172.6155,0.0000,0.0000,0.0000,0.0000,0.0000,สอง
58363,-0.2911,0.0872,-0.0040,0.3286,1.3761,-9.6987,2.0236,7.1933,172.5246,0.0000,0.0000,0.0000,0.0000,0.0000,สอง
58479,-0.3401,0.0778,0.0431,0.3502,1.2432,-9.7597,2.0251,7.1995,172.5182,0.0000,0.0000,0.0000,0.0000,0.0000,สอง
58595,-0.2327,0.0738,0.0273,0.2251,1.2133,-9.7657,1.9532,7.1876,172.5491,0.0000,0.0000,0.0000,0.0000,0.0000,สอง
58711,-0.2226,0.0604,-0.0117,0.3226,1.1642,-9.7561,1.9459,7.1488,172.5884,0.0000,0.0000,0.0000,0.0000,0.0000,สอง
58827,-0.2014,0.0307,-0.0044,0.2903,1.2139,-9.7483,1.9205,7.1434,172.6003,0.0000,0.0000,0.0000,0.0000,0.0000,สอง
58943,-0.1945,0.0765,0.0293,0.3017,1.2127,-9.7531,1.9042,7.1375,172.6103,0.0000,0.0000,0.0000,0.0000,0.0000,สอง
59059,-0.2628,0.0316,0.0252,0.2269,1.2594,-9.8639,1.8437,7.1514,172.6124,0.0000,0.0000,0.0000,0.0000,0.0000,break_time
59175,-0.1519,0.0312,-0.0420,0.2059,1.0218,-9.7884,1.7791,7.0318,172.7444,0.0000,0.0000,0.0000,0.0000,0.0000,break_time
59291,-0.0613,0.0168,0.0106,0.2065,1.2175,-9.6927,1.7225,7.0444,172.7460,0.0000,0.0000,0.0000,0.0000,0.0000,break_time
59407,-0.1554,0.0875,-0.0326,0.4064,1.2965,-9.7124,1.7878,7.0996,172.6765,0.0000,0.0000,0.0000,0.0000,0.0000,break_time
59523,-0.2222,0.0766,-0.0045,0.3137,1.3001,-9.7316,1.7920,7.1503,172.6263,0.0000,0.0000,0.0000,0.0000,0.0000,break_time
59639,-0.2491,0.0874,0.0495,0.3352,1.2654,-9.7388,1.8083,7.1751,172.5982,0.0000,0.0000,0.0000,0.0000,0.0000,break_time
59755,-0.2421,0.0768,0.0037,0.2831,1.2157,-9.7334,1.7928,7.1693,172.6077,0.0000,0.0000,0.0000,0.0000,0.0000,break_time
59871,-0.2311,0.0848,-0.0234,0.3334,1.1930,-9.7459,1.8080,7.1498,172.6228,0.0000,0.0000,0.0000,0.0000,0.0000,break_time
59987,-0.1910,0.0530,-0.0172,0.2556,1.2007,-9.7094,1.7769,7.1396,172.6404,0.0000,0.0000,0.0000,0.0000,0.0000,break_time
60103,-0.1883,0.0575,0.0390,0.3292,1.1947,-9.7621,1.7910,7.1229,172.6531,0.0000,0.0000,0.0000,0.0000,0.0000,break_time
60219,-0.1778,0.0675,-0.0326,0.3430,1.2349,-9.7202,1.8124,7.1342,172.6369,0.0000,0.0000,0.0000,0.0000,0.0000,break_time
60335,-0.2099,0.0558,0.0139,0.2694,1.2217,-9.7220,1.7886,7.1367,172.6403,0.0000,0.0000,0.0000,0.0000,0.0000,break_time
60451,-0.1900,0.0714,-0.0248,0.3113,1.2534,-9.7274,1.7915,7.1569,172.6200,0.0000,0.0000,0.0000,0.0000,0.0000,break_time
60567,-0.1936,0.0658,0.0360,0.2993,1.2103,-9.7597,1.7867,7.1478,172.6300,0.0000,0.0000,0.0000,0.0000,0.0000,break_time
60683,-0.2207,0.0585,0.0162,0.3478,1.2438,-9.7376,1.8109,7.1605,172.6117,0.0000,0.0000,0.0000,0.0000,0.0000,break_time
60799,-0.2228,0.0652,0.0331,0.2939,1.2067,-9.7525,1.8011,7.1495,172.6248,0.0000,0.0000,0.0000,0.0000,0.0000,break_time
60915,-0.2159,0.0862,0.0218,0.3388,1.1930,-9.7208,1.8191,7.1338,172.6356,0.0000,0.0000,0.0000,0.0000,0.0000,break_time
61031,-0.1810,0.0438,0.0164,0.3023,1.3713,-9.7513,1.8130,7.2208,172.5527,0.0000,0.0000,0.0000,0.0000,0.0000,break_time
61147,-0.2264,0.0532,-0.0296,0.3621,1.2037,-9.7849,1.8422,7.1995,172.5661,0.0000,0.0000,0.0000,0.0000,0.0000,break_time
61263,-0.2029,0.0682,-0.0029,0.3041,1.2211,-9.7477,1.8353,7.1932,172.5739,0.0000,0.0000,0.0000,0.0000,0.0000,break_time
61379,-0.1748,0.0708,0.0529,0.2873,1.2031,-9.7615,1.8190,7.1762,172.5945,0.0000,0.0000,0.0000,0.0000,0.0000,break_time
61495,-0.1986,0.0780,-0.0120,0.2873,1.2528,-9.7274,1.8050,7.1922,172.5825,0.0000,0.0000,0.0000,0.0000,0.0000,break_time
61611,-0.1915,0.0968,-0.0226,0.3478,1.2085,-9.7992,1.8263,7.1755,172.5934,0.0000,0.0000,0.0000,0.0000,0.0000,break_time
61727,-0.2346,0.0844,0.0274,0.3178,1.2241,-9.7436,1.8290,7.1736,172.5945,0.0000,0.0000,0.0000,0.0000,0.0000,break_time
61843,-0.2034,0.0622,0.0337,0.3316,1.2121,-9.7160,1.8401,7.1670,172.5982,0.0000,0.0000,0.0000,0.0000,0.0000,break_time
61959,-0.1764,0.0883,0.0484,0.2885,1.2361,-9.7148,1.8249,7.1750,172.5942,0.0000,0.0000,0.0000,0.0000,0.0000,break_time
62075,-0.1765,0.0480,0.0030,0.2855,1.2127,-9.7178,1.8094,7.1686,172.6043,0.0000,0.0000,0.0000,0.0000,0.0000,nothing
62191,-0.1940,0.0680,0.0443,0.3143,1.2378,-9.7471,1.8117,7.1751,172.5974,0.0000,0.0000,0.0000,0.0000,0.0000,nothing
62307,-0.1106,0.1268,0.0357,0.4088,0.9972,-9.7639,1.8691,7.0403,172.7134,0.0000,0.0000,0.0000,0.0000,0.0000,nothing
62423,0.0686,0.0059,-0.0420,0.1095,1.1439,-9.5448,1.7498,7.0201,172.7630,0.0000,0.0000,0.0000,0.0000,0.0000,สาม
62539,-0.2436,0.1302,-0.0634,0.2472,1.6030,-9.6843,1.7191,7.2580,172.5390,0.0000,0.0000,0.0000,0.0000,0.0000,สาม
62655,-0.3422,0.1269,0.1307,0.2795,1.2785,-9.7112,1.7107,7.2819,172.5177,0.0000,0.0000,0.0000,0.0000,0.0000,สาม
62771,-0.2631,0.0789,0.0649,0.2735,1.0936,-9.7717,1.6990,7.1918,172.6082,0.0000,0.0000,0.0000,0.0000,0.0000,สาม
62887,-0.1872,0.0695,-0.0461,0.3131,1.1654,-9.7855,1.7111,7.1512,172.6448,0.0000,0.0000,0.0000,0.0000,0.0000,สาม
63003,-0.1813,0.0479,0.0357,0.3184,1.2265,-9.7106,1.7263,7.1556,172.6370,0.0000,0.0000,0.0000,0.0000,0.0000,สาม
63119,-0.2125,0.0563,-0.0236,0.3502,1.1798,-9.7316,1.7582,7.1308,172.6534,0.0000,0.0000,0.0000,0.0000,0.0000,สาม
63235,-0.2106,0.0450,0.0161,0.2903,1.2043,-9.7268,1.7521,7.1232,172.6623,0.0000,0.0000,0.0000,0.0000,0.0000,สาม
63351,-0.2247,0.0836,0.1042,0.3059,1.2295,-9.7507,1.7551,7.1292,172.6557,0.0000,0.0000,0.0000,0.0000,0.0000,สาม
63467,-0.2194,0.0769,-0.0401,0.3304,1.2402,-9.7358,1.7725,7.1419,172.6392,0.0000,0.0000,0.0000,0.0000,0.0000,สาม
63583,-0.2275,0.0653,0.0108,0.2969,1.1900,-9.7298,1.7687,7.1247,172.6569,0.0000,0.0000,0.0000,0.0000,0.0000,สาม
63699,-0.2068,0.0504,0.0394,0.4573,1.2522,-9.7292,1.8588,7.1449,172.6148,0.0000,0.0000,0.0000,0.0000,0.0000,สาม
63815,-0.2038,0.0544,-0.0718,0.3436,1.2396,-9.7615,1.8730,7.1537,172.6027,0.0000,0.0000,0.0000,0.0000,0.0000,สาม
63931,-0.1944,0.0765,0.0348,0.2993,1.2247,-9.7519,1.8601,7.1538,172.6059,0.0000,0.0000,0.0000,0.0000,0.0000,สาม
64047,-0.2300,0.0660,-0.0454,0.3286,1.1942,-9.7477,1.8657,7.1365,172.6212,0.0000,0.0000,0.0000,0.0000,0.0000,สาม
64163,-0.2164,0.0603,0.0229,0.2939,1.2271,-9.7190,1.8510,7.1421,172.6196,0.0000,0.0000,0.0000,0.0000,0.0000,สาม
64279,-0.2014,0.0755,0.0690,0.2825,1.1906,-9.7477,1.8307,7.1239,172.6423,0.0000,0.0000,0.0000,0.0000,0.0000,สาม
64395,-0.2091,0.0639,-0.0086,0.3400,1.1840,-9.8016,1.8449,7.0997,172.6621,0.0000,0.0000,0.0000,0.0000,0.0000,สาม
64511,-0.2087,0.0706,0.0361,0.3490,1.2372,-9.7615,1.8636,7.1117,172.6458,0.0000,0.0000,0.0000,0.0000,0.0000,สาม
64627,-0.1984,0.0852,-0.0690,0.3238,1.2390,-9.7495,1.8660,7.1244,172.6328,0.0000,0.0000,0.0000,0.0000,0.0000,สาม
64743,-0.2172,0.0634,0.0273,0.3526,1.2187,-9.7681,1.8845,7.1227,172.6297,0.0000,0.0000,0.0000,0.0000,0.0000,สาม
64859,-0.2027,0.0654,-0.0020,0.2807,1.2007,-9.7352,1.8600,7.1133,172.6451,0.0000,0.0000,0.0000,0.0000,0.0000,สาม
64975,-0.1851,0.0844,0.0273,0.3579,1.2055,-9.7759,1.8822,7.1045,172.6479,0.0000,0.0000,0.0000,0.0000,0.0000,สาม
65091,-0.2303,0.0376,0.0019,0.3484,1.2295,-9.7388,1.8972,7.1131,172.6357,0.0000,0.0000,0.0000,0.0000,0.0000,สาม
65207,-0.2146,0.0477,-0.0361,0.2532,1.2151,-9.7477,1.8552,7.1121,172.6475,0.0000,0.0000,0.0000,0.0000,0.0000,สาม
65323,-0.2237,0.0523,0.0491,0.3484,1.2636,-9.7627,1.8724,7.1380,172.6181,0.0000,0.0000,0.0000,0.0000,0.0000,สาม
65439,-0.2069,0.0938,-0.0166,0.3172,1.2396,-9.7388,1.8702,7.1492,172.6078,0.0000,0.0000,0.0000,0.0000,0.0000,สาม
65555,-0.2098,0.0465,0.0226,0.1317,0.8889,-9.7196,1.7613,6.9581,172.8203,0.0000,0.0000,0.0000,0.0000,0.0000,สาม
65671,0.2360,0.0014,-0.0458,0.6776,1.1660,-9.8399,1.9785,6.9367,172.7840,0.0000,0.0000,0.0000,0.0000,0.0000,break_time
65787,-0.3235,0.1213,0.0697,0.2712,1.5323,-9.6975,1.9390,7.1404,172.5983,0.0000,0.0000,0.0000,0.0000,0.0000,break_time
65903,-0.3547,0.1066,0.0819,0.3657,1.2857,-9.7831,1.9574,7.1747,172.5603,0.0000,0.0000,0.0000,0.0000,0.0000,break_time
66019,-0.3043,0.0990,0.0330,0.2604,1.2349,-9.7268,1.9139,7.1805,172.5662,0.0000,0.0000,0.0000,0.0000,0.0000,break_time
66135,-0.2303,0.0363,0.0041,0.3334,1.1840,-9.7400,1.9171,7.1552,172.5898,0.0000,0.0000,0.0000,0.0000,0.0000,break_time
66251,-0.2162,0.0743,0.0241,0.2532,1.1546,-9.7513,1.8732,7.1148,172.6403,0.0000,0.0000,0.0000,0.0000,0.0000,break_time
66367,-0.1749,0.0628,0.0367,0.2909,1.1762,-9.7501,1.8555,7.0909,172.6680,0.0000,0.0000,0.0000,0.0000,0.0000,break_time
66483,-0.1580,0.0376,0.0195,0.3029,1.2115,-9.7549,1.8465,7.0894,172.6717,0.0000,0.0000,0.0000,0.0000,0.0000,break_time
66599,-0.1877,0.0466,0.0049,0.3639,1.2408,-9.7280,1.8743,7.1068,172.6477,0.0000,0.0000,0.0000,0.0000,0.0000,break_time
66715,-0.2093,0.0492,-0.0056,0.3071,1.2630,-9.7495,1.8658,7.1339,172.6237,0.0000,0.0000,0.0000,0.0000,0.0000,break_time
66831,-0.1922,0.0765,0.0435,0.2765,1.2456,-9.7495,1.8403,7.1483,172.6162,0.0000,0.0000,0.0000,0.0000,0.0000,break_time
66947,-0.1906,0.0511,0.0402,0.3334,1.2151,-9.7453,1.8507,7.1438,172.6179,0.0000,0.0000,0.0000,0.0000,0.0000,break_time
67063,-0.2217,0.0574,-0.0040,0.2963,1.2145,-9.7513,1.8384,7.1391,172.6256,0.0000,0.0000,0.0000,0.0000,0.0000,break_time
67179,-0.2018,0.0487,-0.0271,0.3909,1.1846,-9.7597,1.8822,7.1166,172.6362,0.0000,0.0000,0.0000,0.0000,0.0000,break_time
67295,-0.1988,0.0753,0.0608,0.2777,1.2450,-9.7190,1.8565,7.1346,172.6254,0.0000,0.0000,0.0000,0.0000,0.0000,break_time
67411,-0.1763,0.0631,-0.0320,0.3388,1.2205,-9.7603,1.8681,7.1335,172.6235,0.0000,0.0000,0.0000,0.0000,0.0000,break_time
67527,-0.1959,0.0543,0.0218,0.3418,1.2558,-9.7465,1.8805,7.1539,172.6006,0.0000,0.0000,0.0000,0.0000,0.0000,break_time
67643,-0.2174,0.0695,-0.0154,0.3053,1.0804,-9.7046,1.8716,7.0739,172.6802,0.0000,0.0000,0.0000,0.0000,0.0000,break_time
67759,-0.2165,0.0664,0.0161,0.2975,1.2480,-9.7424,1.8579,7.0962,172.6622,0.0000,0.0000,0.0000,0.0000,0.0000,break_time
67875,-0.2063,0.0615,0.0315,0.3190,1.2019,-9.7430,1.8582,7.0895,172.6686,0.0000,0.0000,0.0000,0.0000,0.0000,break_time
67991,-0.1813,0.0645,0.0593,0.3059,1.2241,-9.7747,1.8502,7.0940,172.6663,0.0000,0.0000,0.0000,0.0000,0.0000,break_time
68107,-0.2229,0.0404,0.0757,0.2783,1.2025,-9.7184,1.8281,7.0897,172.6761,0.0000,0.0000,0.0000,0.0000,0.0000,break_time
68223,-0.1682,0.0564,-0.0860,0.3160,1.2259,-9.7603,1.8293,7.0962,172.6694,0.0000,0.0000,0.0000,0.0000,0.0000,break_time
68339,-0.2035,0.0788,0.0041,0.3430,1.2450,-9.7334,1.8465,7.1151,172.6468,0.0000,0.0000,0.0000,0.0000,0.0000,break_time
68455,-0.1760,0.0706,-0.0255,0.3113,1.2037,-9.7142,1.8440,7.1096,172.6527,0.0000,0.0000,0.0000,0.0000,0.0000,break_time
68571,-0.1941,0.0800,0.0046,0.3053,1.2594,-9.7274,1.8379,7.1360,172.6288,0.0000,0.0000,0.0000,0.0000,0.0000,break_time
68687,-0.1941,0.0605,0.0476,0.3322,1.2426,-9.7388,1.8479,7.1491,172.6135,0.0000,0.0000,0.0000,0.0000,0.0000,nothing
68803,-0.2113,0.0600,0.0161,0.2801,1.2319,-9.7244,1.8268,7.1559,172.6123,0.0000,0.0000,0.0000,0.0000,0.0000,nothing
68919,-0.2114,0.0551,0.0130,0.2909,1.2528,-9.6969,1.8146,7.1760,172.5957,0.0000,0.0000,0.0000,0.0000,0.0000,nothing
69035,-0.1988,0.0288,0.0162,0.3484,1.1870,-9.7154,1.8370,7.1546,172.6109,0.0000,0.0000,0.0000,0.0000,0.0000,nothing
69151,-0.2345,0.0673,0.0766,0.5196,1.5288,-9.6520,1.9574,7.3375,172.4031,0.0000,0.0000,0.0000,0.0000,0.0000,สี่
69267,-0.4026,0.0529,0.0102,0.2819,1.2223,-9.7651,1.9256,7.3169,172.4313,0.0000,0.0000,0.0000,0.0000,0.0000,สี่
69383,-0.2011,0.0402,0.0053,0.2580,1.0912,-9.7717,1.8833,7.2220,172.5340,0.0000,0.0000,0.0000,0.0000,0.0000,สี่
69499,-0.1037,0.0687,-0.0391,0.2694,1.1337,-9.7819,1.8516,7.1605,172.6016,0.0000,0.0000,0.0000,0.0000,0.0000,สี่
69615,-0.1046,0.0236,-0.0094,0.3340,1.2319,-9.7489,1.8611,7.1642,172.5956,0.0000,0.0000,0.0000,0.0000,0.0000,สี่
69731,-0.1798,0.0431,-0.0106,0.3184,1.2887,-9.8076,1.8594,7.1962,172.5650,0.0000,0.0000,0.0000,0.0000,0.0000,สี่
69847,-0.1869,0.0579,0.0361,0.2843,1.2079,-9.7280,1.8396,7.1841,172.5817,0.0000,0.0000,0.0000,0.0000,0.0000,สี่
69963,-0.1690,0.0551,-0.0331,0.2783,1.2307,-9.7507,1.8178,7.1847,172.5865,0.0000,0.0000,0.0000,0.0000,0.0000,สี่
70079,-0.2050,0.0832,0.0279,0.3178,1.2498,-9.7184,1.8218,7.1987,172.5720,0.0000,0.0000,0.0000,0.0000,0.0000,สี่
70195,-0.1854,0.0766,-0.0004,0.2735,1.3755,-9.7232,1.7992,7.2837,172.4950,0.0000,0.0000,0.0000,0.0000,0.0000,สี่
70311,-0.2139,0.0815,-0.0462,0.3095,1.2372,-9.7567,1.7995,7.2777,172.5008,0.0000,0.0000,0.0000,0.0000,0.0000,สี่
70427,-0.2221,0.0759,0.0029,0.3573,1.2157,-9.7023,1.8288,7.2637,172.5072,0.0000,0.0000,0.0000,0.0000,0.0000,สี่
70543,-0.2094,0.0271,0.0260,0.3364,1.1828,-9.7262,1.8425,7.2303,172.5362,0.0000,0.0000,0.0000,0.0000,0.0000,สี่
70659,-0.1836,0.0518,0.0050,0.3125,1.1888,-9.7459,1.8405,7.2023,172.5638,0.0000,0.0000,0.0000,0.0000,0.0000,สี่
70775,-0.2158,0.0172,0.0035,0.3029,1.1642,-9.7094,1.8339,7.1657,172.6010,0.0000,0.0000,0.0000,0.0000,0.0000,สี่
70891,-0.1830,0.0594,0.0568,0.3017,1.2534,-9.7208,1.8268,7.1834,172.5855,0.0000,0.0000,0.0000,0.0000,0.0000,สี่
71007,-0.2135,0.0860,-0.0547,0.3065,1.2127,-9.7537,1.8227,7.1735,172.5962,0.0000,0.0000,0.0000,0.0000,0.0000,สี่
71123,-0.1819,0.0589,-0.0654,0.3633,1.2193,-9.7256,1.8527,7.1702,172.5918,0.0000,0.0000,0.0000,0.0000,0.0000,สี่
71239,-0.2218,0.0643,0.0369,0.2915,1.2450,-9.7549,1.8372,7.1802,172.5860,0.0000,0.0000,0.0000,0.0000,0.0000,สี่
71355,-0.2106,0.0757,0.0056,0.2999,1.2396,-9.7633,1.8280,7.1855,172.5832,0.0000,0.0000,0.0000,0.0000,0.0000,สี่
71471,-0.2048,0.0829,-0.0029,0.3238,1.2384,-9.7561,1.8338,7.1900,172.5774,0.0000,0.0000,0.0000,0.0000,0.0000,สี่
71587,-0.2181,0.0712,0.0191,0.3567,1.1768,-9.7226,1.8590,7.1608,172.5994,0.0000,0.0000,0.0000,0.0000,0.0000,สี่
71703,-0.2234,0.0708,-0.0108,0.2544,1.2654,-9.7340,1.8216,7.1851,172.5852,0.0000,0.0000,0.0000,0.0000,0.0000,สี่
71819,-0.2252,0.0657,-0.0263,0.6596,1.1678,-9.7795,2.0235,7.1463,172.5699,0.0000,0.0000,0.0000,0.0000,0.0000,สี่
71935,-0.2139,0.0709,0.0817,0.1987,1.2163,-9.7286,1.9374,7.1442,172.5951,0.0000,0.0000,0.0000,0.0000,0.0000,สี่
72051,-0.1875,0.0643,0.0326,0.2747,1.2516,-9.7633,1.9035,7.1601,172.5887,0.0000,0.0000,0.0000,0.0000,0.0000,สี่
72167,-0.2313,0.0567,-0.0641,0.3334,1.2420,-9.7334,1.9077,7.1708,172.5772,0.0000,0.0000,0.0000,0.0000,0.0000,สี่
72283,-0.2135,0.0553,0.0428,0.3202,1.2259,-9.7394,1.9038,7.1708,172.5782,0.0000,0.0000,0.0000,0.0000,0.0000,สี่
72399,-0.2323,0.1036,-0.0290,0.2999,1.2049,-9.7400,1.8884,7.1586,172.5940,0.0000,0.0000,0.0000,0.0000,0.0000,สี่
72515,-0.1992,0.0957,-0.0339,0.3184,1.2115,-9.7298,1.8856,7.1521,172.6010,0.0000,0.0000,0.0000,0.0000,0.0000,สี่
72631,-0.1989,0.0909,0.0031,0.3394,1.2151,-9.7082,1.8957,7.1499,172.6005,0.0000,0.0000,0.0000,0.0000,0.0000,สี่
72747,-0.2476,0.0822,0.0025,0.1718,1.2863,-9.7172,1.8067,7.1889,172.5852,0.0000,0.0000,0.0000,0.0000,0.0000,สี่
72863,-0.1809,0.0755,0.0278,0.2783,1.2001,-9.7352,1.7885,7.1725,172.6056,0.0000,0.0000,0.0000,0.0000,0.0000,สี่
72979,-0.2303,0.0683,-0.1029,0.3214,1.1942,-9.7352,1.7974,7.1542,172.6212,0.0000,0.0000,0.0000,0.0000,0.0000,สี่
73095,-0.2037,0.0784,0.0643,0.3190,1.2372,-9.7591,1.8034,7.1610,172.6131,0.0000,0.0000,0.0000,0.0000,0.0000,สี่
73211,-0.2217,0.0665,0.0851,0.3292,1.2235,-9.7256,1.8154,7.1615,172.6097,0.0000,0.0000,0.0000,0.0000,0.0000,สี่
73327,-0.2093,0.0890,-0.0134,0.3089,1.2259,-9.7723,1.8135,7.1600,172.6116,0.0000,0.0000,0.0000,0.0000,0.0000,สี่
73443,-0.2196,0.0559,-0.0233,0.2514,1.2253,-9.7603,1.7785,7.1593,172.6209,0.0000,0.0000,0.0000,0.0000,0.0000,สี่
73559,-0.2033,0.0740,-0.0668,0.2759,1.2875,-9.8076,1.7603,7.1912,172.5943,0.0000,0.0000,0.0000,0.0000,0.0000,สี่
73675,-0.2258,0.1152,-0.1457,0.4579,1.1307,-9.7471,1.8514,7.1331,172.6281,0.0000,0.0000,0.0000,0.0000,0.0000,สี่
73791,-0.1977,0.0547,-0.0975,0.3178,1.2199,-9.7603,1.8513,7.1319,172.6293,0.0000,0.0000,0.0000,0.0000,0.0000,สี่
73907,-0.2398,0.0421,-0.0067,0.2418,1.1115,-9.7962,1.8066,7.0657,172.7047,0.0000,0.0000,0.0000,0.0000,0.0000,break_time
74023,-0.0817,0.0845,-0.0123,0.3226,0.9176,-9.7280,1.8151,6.8986,172.8644,0.0000,0.0000,0.0000,0.0000,0.0000,break_time
74139,-0.0943,0.0740,0.0575,0.3310,1.3953,-9.6615,1.8278,7.0293,172.7347,0.0000,0.0000,0.0000,0.0000,0.0000,break_time
74255,-0.2740,0.1221,-0.0309,0.3825,1.3258,-9.7819,1.8671,7.0980,172.6581,0.0000,0.0000,0.0000,0.0000,0.0000,break_time
74371,-0.2758,0.0902,-0.0394,0.3172,1.2821,-9.7310,1.8655,7.1384,172.6194,0.0000,0.0000,0.0000,0.0000,0.0000,break_time
74487,-0.2827,0.0800,0.0564,0.3214,1.1738,-9.7507,1.8664,7.1106,172.6461,0.0000,0.0000,0.0000,0.0000,0.0000,break_time
74603,-0.2275,0.0798,0.1021,0.3154,1.1846,-9.7513,1.8637,7.0918,172.6650,0.0000,0.0000,0.0000,0.0000,0.0000,break_time
74719,-0.2219,0.0789,0.0413,0.3723,1.1702,-9.7358,1.8947,7.0676,172.6804,0.0000,0.0000,0.0000,0.0000,0.0000,break_time
74835,-0.2020,0.0528,-0.0447,0.3166,1.2067,-9.7495,1.8899,7.0660,172.6831,0.0000,0.0000,0.0000,0.0000,0.0000,break_time
74951,-0.1517,0.0751,0.0393,0.3298,1.2271,-9.7310,1.8935,7.0777,172.6709,0.0000,0.0000,0.0000,0.0000,0.0000,break_time
75067,-0.1875,0.0444,0.0040,0.3346,1.2295,-9.7543,1.8991,7.0879,172.6596,0.0000,0.0000,0.0000,0.0000,0.0000,break_time
75183,-0.1994,0.0817,0.0605,0.3777,1.1959,-9.7412,1.9295,7.0785,172.6606,0.0000,0.0000,0.0000,0.0000,0.0000,break_time
75299,-0.2349,0.0717,-0.0090,0.3304,1.2600,-9.7244,1.9296,7.1085,172.6317,0.0000,0.0000,0.0000,0.0000,0.0000,break_time
75415,-0.1860,0.0679,0.0311,0.3765,1.1983,-9.7573,1.9560,7.0973,172.6354,0.0000,0.0000,0.0000,0.0000,0.0000,break_time
75531,-0.1959,0.0838,-0.0354,0.2771,1.2289,-9.7591,1.9217,7.1050,172.6371,0.0000,0.0000,0.0000,0.0000,0.0000,break_time
75647,-0.1733,0.0615,0.0688,0.2724,1.2019,-9.7268,1.8888,7.0987,172.6518,0.0000,0.0000,0.0000,0.0000,0.0000,break_time
75763,-0.2001,0.0922,-0.0234,0.3292,1.2361,-9.6939,1.8928,7.1150,172.6350,0.0000,0.0000,0.0000,0.0000,0.0000,break_time
75879,-0.2026,0.0626,-0.0386,0.2634,1.2301,-9.7046,1.8579,7.1256,172.6338,0.0000,0.0000,0.0000,0.0000,0.0000,break_time
75995,-0.2076,0.0658,-0.0607,0.3328,1.2307,-9.7184,1.8667,7.1343,172.6231,0.0000,0.0000,0.0000,0.0000,0.0000,break_time
76111,-0.2263,0.0605,-0.0305,0.3101,1.2169,-9.7298,1.8611,7.1334,172.6254,0.0000,0.0000,0.0000,0.0000,0.0000,break_time
76227,-0.1922,0.0879,0.0658,0.3244,1.2313,-9.7034,1.8650,7.1428,172.6153,0.0000,0.0000,0.0000,0.0000,0.0000,break_time
76343,-0.2312,0.0665,-0.0097,0.2729,1.2642,-9.7298,1.8378,7.1685,172.5972,0.0000,0.0000,0.0000,0.0000,0.0000,break_time
76459,-0.2218,0.0843,0.0965,0.3508,1.1977,-9.7370,1.8588,7.1525,172.6075,0.0000,0.0000,0.0000,0.0000,0.0000,break_time
76575,-0.2616,0.1100,-0.0838,0.3681,1.2468,-9.7675,1.8871,7.1642,172.5889,0.0000,0.0000,0.0000,0.0000,0.0000,break_time
76691,-0.2049,0.0687,0.0346,0.3214,1.1977,-9.7184,1.8864,7.1500,172.6028,0.0000,0.0000,0.0000,0.0000,0.0000,break_time
76807,-0.2053,0.0868,-0.0394,0.3573,1.2193,-9.7244,1.9066,7.1492,172.5983,0.0000,0.0000,0.0000,0.0000,0.0000,break_time
76923,-0.1974,0.0795,0.0007,0.3107,1.2019,-9.7406,1.8972,7.1374,172.6122,0.0000,0.0000,0.0000,0.0000,0.0000,break_time
77039,-0.2054,0.0652,0.0559,0.3059,1.2055,-9.7489,1.8858,7.1282,172.6240,0.0000,0.0000,0.0000,0.0000,0.0000,nothing
77155,-0.2030,0.0731,-0.0533,0.3244,1.2223,-9.7729,1.8859,7.1279,172.6243,0.0000,0.0000,0.0000,0.0000,0.0000,nothing
77271,-0.1757,0.0604,0.0266,0.3250,1.1942,-9.7579,1.8867,7.1124,172.6391,0.0000,0.0000,0.0000,0.0000,0.0000,nothing
77387,-0.2155,0.1085,0.0095,0.3567,1.2384,-9.7519,1.9059,7.1245,172.6225,0.0000,0.0000,0.0000,0.0000,0.0000,error_redo
77503,-0.1693,0.0457,-0.0169,0.2825,0.8278,-9.9100,1.8779,6.8867,172.8595,0.0000,0.0000,0.0000,0.0000,0.0000,error_redo
77619,-0.0673,0.0523,0.0026,0.3945,1.2654,-9.7573,1.9197,6.9364,172.8003,0.0000,0.0000,0.0000,0.0000,0.0000,error_redo
77735,-0.2239,0.0815,0.0045,0.3119,1.2983,-9.7316,1.9097,7.0022,172.7395,0.0000,0.0000,0.0000,0.0000,0.0000,error_redo
77851,-0.2300,0.0601,-0.0506,0.3328,1.2301,-9.7358,1.9130,7.0216,172.7199,0.0000,0.0000,0.0000,0.0000,0.0000,error_redo
77967,-0.2357,0.0705,0.0432,0.3184,1.1828,-9.7232,1.9079,7.0127,172.7299,0.0000,0.0000,0.0000,0.0000,0.0000,error_redo
78083,-0.2101,0.0808,0.0454,0.3388,1.1840,-9.7058,1.9155,7.0065,172.7338,0.0000,0.0000,0.0000,0.0000,0.0000,cooldown
78199,-0.2075,0.0249,0.0019,0.3394,1.1271,-9.8303,1.9205,6.9592,172.7781,0.0000,0.0000,0.0000,0.0000,0.0000,cooldown
78315,-0.1831,0.0326,-0.0432,0.3394,1.1523,-9.7430,1.9265,6.9374,172.7975,0.0000,0.0000,0.0000,0.0000,0.0000,cooldown
78431,-0.1366,0.0642,0.0397,0.2700,1.2552,-9.7753,1.8907,6.9752,172.7706,0.0000,0.0000,0.0000,0.0000,0.0000,cooldown
78547,-0.1568,0.0802,0.0553,0.3484,1.2384,-9.7292,1.9050,7.0026,172.7404,0.0000,0.0000,0.0000,0.0000,0.0000,cooldown
78663,-0.1455,0.0710,-0.0311,0.3089,1.2486,-9.7412,1.8947,7.0324,172.7143,0.0000,0.0000,0.0000,0.0000,0.0000,cooldown
78779,-0.1890,0.0586,0.0153,0.3370,1.1906,-9.7088,1.9025,7.0279,172.7167,0.0000,0.0000,0.0000,0.0000,0.0000,cooldown
78895,-0.1750,0.0578,0.0401,0.3256,1.2085,-9.7621,1.9018,7.0304,172.7144,0.0000,0.0000,0.0000,0.0000,0.0000,cooldown
79011,-0.2104,0.0628,0.0556,0.3011,1.2097,-9.7268,1.8876,7.0360,172.7127,0.0000,0.0000,0.0000,0.0000,0.0000,cooldown
79127,-0.1744,0.0582,0.0155,0.3029,1.2456,-9.7471,1.8754,7.0603,172.6924,0.0000,0.0000,0.0000,0.0000,0.0000,cooldown
79243,-0.2004,0.0624,-0.1021,0.3478,1.2079,-9.7669,1.8903,7.0589,172.6899,0.0000,0.0000,0.0000,0.0000,0.0000,cooldown
79359,-0.2176,0.0611,-0.0559,0.2861,1.2121,-9.7627,1.8678,7.0604,172.6943,0.0000,0.0000,0.0000,0.0000,0.0000,cooldown
79475,-0.1862,0.0887,0.0843,0.3119,1.2211,-9.7567,1.8627,7.0674,172.6888,0.0000,0.0000,0.0000,0.0000,0.0000,cooldown
79591,-0.1941,0.0622,0.0293,0.3065,1.2139,-9.7459,1.8551,7.0703,172.6880,0.0000,0.0000,0.0000,0.0000,0.0000,cooldown
79707,-0.1800,0.0665,0.0472,0.3089,1.2337,-9.7388,1.8499,7.0848,172.6752,0.0000,0.0000,0.0000,0.0000,0.0000,cooldown
79823,-0.1581,0.0728,-0.0483,0.2819,1.2085,-9.7501,1.8292,7.0826,172.6826,0.0000,0.0000,0.0000,0.0000,0.0000,cooldown
79939,-0.1830,0.0772,0.0329,0.3837,1.1750,-9.7328,1.8704,7.0623,172.6918,0.0000,0.0000,0.0000,0.0000,0.0000,cooldown
80055,-0.2283,0.0626,0.0222,0.2945,1.2438,-9.7118,1.8557,7.0855,172.6731,0.0000,0.0000,0.0000,0.0000,0.0000,cooldown
80171,-0.2222,0.0469,0.0367,0.3370,1.2229,-9.7765,1.8660,7.0895,172.6666,0.0000,0.0000,0.0000,0.0000,0.0000,cooldown
80287,-0.1928,0.0631,-0.0219,0.4579,1.2223,-9.7597,1.9461,7.0937,172.6416,0.0000,0.0000,0.0000,0.0000,0.0000,cooldown
80403,-0.1984,0.0549,-0.0080,0.3573,1.2384,-9.7555,1.9596,7.1073,172.6248,0.0000,0.0000,0.0000,0.0000,0.0000,cooldown
80519,-0.2241,0.0375,-0.0255,0.2718,1.2133,-9.6915,1.9232,7.1099,172.6320,0.0000,0.0000,0.0000,0.0000,0.0000,cooldown
80635,-0.2038,0.0768,0.0240,0.3340,1.2558,-9.7376,1.9257,7.1334,172.6087,0.0000,0.0000,0.0000,0.0000,0.0000,cooldown
80751,-0.1939,0.0717,0.0499,0.3346,1.1983,-9.7471,1.9283,7.1205,172.6204,0.0000,0.0000,0.0000,0.0000,0.0000,cooldown
80867,-0.1851,0.0683,-0.0397,0.2562,1.2372,-9.7274,1.8852,7.1331,172.6195,0.0000,0.0000,0.0000,0.0000,0.0000,cooldown
80983,-0.2423,0.0701,0.0308,0.3005,1.2061,-9.7453,1.8720,7.1250,172.6308,0.0000,0.0000,0.0000,0.0000,0.0000,cooldown
81099,-0.1962,0.0499,0.0219,0.2724,1.2390,-9.7058,1.8443,7.1396,172.6236,0.0000,0.0000,0.0000,0.0000,0.0000,cooldown
81215,-0.1906,0.0567,0.0164,0.3256,1.2097,-9.7687,1.8493,7.1312,172.6305,0.0000,0.0000,0.0000,0.0000,0.0000,cooldown
81331,-0.1911,0.0582,0.0162,0.3304,1.2097,-9.7537,1.8570,7.1247,172.6349,0.0000,0.0000,0.0000,0.0000,0.0000,cooldown
81447,-0.1918,0.0708,0.0070,0.3741,1.2462,-9.7747,1.8888,7.1383,172.6135,0.0000,0.0000,0.0000,0.0000,0.0000,cooldown
81563,-0.1913,0.1013,-0.0016,0.2861,1.2444,-9.7220,1.8672,7.1536,172.6043,0.0000,0.0000,0.0000,0.0000,0.0000,cooldown
81679,-0.1929,0.0654,-0.0135,0.3502,1.2247,-9.7723,1.8841,7.1521,172.6014,0.0000,0.0000,0.0000,0.0000,0.0000,cooldown
81795,-0.1791,0.0601,0.0270,0.2173,1.2372,-9.7202,1.8229,7.1621,172.6072,0.0000,0.0000,0.0000,0.0000,0.0000,cooldown
81911,-0.1764,0.0663,-0.0102,0.2837,1.2331,-9.7513,1.8059,7.1663,172.6074,0.0000,0.0000,0.0000,0.0000,0.0000,cooldown
82027,-0.2155,0.0814,0.0449,0.3933,1.2133,-9.7208,1.8551,7.1606,172.6006,0.0000,0.0000,0.0000,0.0000,0.0000,cooldown
82143,-0.1892,0.0494,0.0038,0.3184,1.1977,-9.7292,1.8557,7.1460,172.6146,0.0000,0.0000,0.0000,0.0000,0.0000,cooldown
82259,-0.2251,0.1226,-0.0209,0.4058,1.2067,-9.7256,1.9072,7.1381,172.6089,0.0000,0.0000,0.0000,0.0000,0.0000,cooldown
82375,-0.1456,0.1429,0.0020,0.5226,1.3246,-9.5364,2.0252,7.2128,172.5054,0.0000,0.0000,0.0000,0.0000,0.0000,cooldown
82491,-0.2436,0.0844,0.0514,0.2526,1.2774,-9.7866,1.9689,7.2351,172.4990,0.0000,0.0000,0.0000,0.0000,0.0000,cooldown
82607,-0.2581,0.0537,0.0158,0.2831,1.2492,-9.7669,1.9366,7.2402,172.5026,0.0000,0.0000,0.0000,0.0000,0.0000,cooldown
82723,-0.2461,0.0675,-0.0138,0.3532,1.1511,-9.7986,1.9480,7.1854,172.5525,0.0000,0.0000,0.0000,0.0000,0.0000,cooldown
82839,-0.2439,0.0926,0.0229,0.2867,1.1708,-9.6921,1.9216,7.1555,172.5883,0.0000,0.0000,0.0000,0.0000,0.0000,cooldown
82955,-0.1955,0.0605,0.0225,0.2263,1.1307,-9.7711,1.8610,7.0998,172.6579,0.0000,0.0000,0.0000,0.0000,0.0000,cooldown
83071,-0.2018,0.0559,0.0097,0.3538,1.2444,-9.7471,1.8812,7.1169,172.6361,0.0000,0.0000,0.0000,0.0000,0.0000,cooldown
83187,-0.2150,0.0179,-0.0206,0.3879,1.1971,-9.7477,1.9192,7.1049,172.6379,0.0000,0.0000,0.0000,0.0000,0.0000,cooldown
83303,-0.1850,0.0443,0.0076,0.2209,1.2055,-9.7531,1.8560,7.0989,172.6601,0.0000,0.0000,0.0000,0.0000,0.0000,cooldown
83419,-0.2001,0.0590,0.0204,0.3478,1.1696,-9.7585,1.8731,7.0720,172.6817,0.0000,0.0000,0.0000,0.0000,0.0000,cooldown
83535,-0.2149,0.0819,-0.0104,0.3538,1.2055,-9.7483,1.8920,7.0693,172.6794,0.0000,0.0000,0.0000,0.0000,0.0000,cooldown
83651,-0.1681,0.0476,-0.0055,0.2418,1.2001,-9.7322,1.8442,7.0652,172.6957,0.0000,0.0000,0.0000,0.0000,0.0000,cooldown
83767,-0.2061,0.0813,0.0468,0.3274,1.1792,-9.7525,1.8507,7.0477,172.7110,0.0000,0.0000,0.0000,0.0000,0.0000,cooldown
83883,-0.2061,0.0693,-0.0183,0.5028,1.1798,-9.7447,1.9589,7.0324,172.6972,0.0000,0.0000,0.0000,0.0000,0.0000,cooldown
83999,-0.1836,0.0679,0.0015,0.2334,1.2067,-9.7316,1.8994,7.0359,172.7097,0.0000,0.0000,0.0000,0.0000,0.0000,cooldown
84115,-0.1899,0.0538,0.0466,0.3484,1.1678,-9.7549,1.9126,7.0145,172.7269,0.0000,0.0000,0.0000,0.0000,0.0000,cooldown
84231,-0.1951,0.0706,0.0324,0.3220,1.2013,-9.7783,1.9085,7.0131,172.7293,0.0000,0.0000,0.0000,0.0000,0.0000,cooldown
84347,-0.2087,0.0682,-0.0145,0.3190,1.1977,-9.7160,1.9044,7.0142,172.7294,0.0000,0.0000,0.0000,0.0000,0.0000,cooldown
84463,-0.1815,0.0945,0.0029,0.2017,1.2504,-9.7495,1.8314,7.0435,172.7199,0.0000,0.0000,0.0000,0.0000,0.0000,cooldown
84579,-0.2293,0.0823,0.0174,0.4214,1.1505,-9.7633,1.8938,7.0106,172.7356,0.0000,0.0000,0.0000,0.0000,0.0000,cooldown
84695,-0.2274,0.0668,-0.0213,0.2945,1.2283,-9.7543,1.8760,7.0269,172.7245,0.0000,0.0000,0.0000,0.0000,0.0000,cooldown
84811,-0.1954,0.0748,-0.0372,0.3562,1.1660,-9.7603,1.8959,7.0050,172.7405,0.0000,0.0000,0.0000,0.0000,0.0000,cooldown
84927,-0.1723,0.0658,0.0397,0.3550,1.1870,-9.7447,1.9134,6.9985,172.7421,0.0000,0.0000,0.0000,0.0000,0.0000,cooldown
85043,-0.1966,0.0709,-0.0085,0.2807,1.2247,-9.7579,1.8855,7.0138,172.7347,0.0000,0.0000,0.0000,0.0000,0.0000,cooldown
85159,-0.2024,0.0787,-0.0777,0.3951,1.2151,-9.7531,1.9272,7.0220,172.7158,0.0000,0.0000,0.0000,0.0000,0.0000,cooldown
85275,-0.1824,0.0523,0.0575,0.2263,1.2043,-9.7382,1.8667,7.0246,172.7291,0.0000,0.0000,0.0000,0.0000,0.0000,cooldown
85391,-0.2044,0.0732,0.1072,0.3232,1.1750,-9.7495,1.8685,7.0090,172.7438,0.0000,0.0000,0.0000,0.0000,0.0000,cooldown
85507,-0.2027,0.0656,-0.0005,0.3148,1.1774,-9.7735,1.8648,6.9947,172.7586,0.0000,0.0000,0.0000,0.0000,0.0000,cooldown
85623,-0.1937,0.0852,0.0030,0.3556,1.1894,-9.7286,1.8861,6.9917,172.7559,0.0000,0.0000,0.0000,0.0000,0.0000,cooldown
85739,-0.1947,0.0364,-0.0935,0.3011,1.2372,-9.7178,1.8735,7.0177,172.7340,0.0000,0.0000,0.0000,0.0000,0.0000,cooldown
85855,-0.1982,0.0864,0.0372,0.4076,1.2055,-9.7376,1.9241,7.0211,172.7175,0.0000,0.0000,0.0000,0.0000,0.0000,cooldown
85971,-0.2136,0.0379,-0.0042,0.2843,1.2055,-9.8016,1.8964,7.0199,172.7260,0.0000,0.0000,0.0000,0.0000,0.0000,cooldown
86087,-0.2337,0.0601,-0.0259,0.3214,1.2025,-9.7166,1.8948,7.0230,172.7234,0.0000,0.0000,0.0000,0.0000,0.0000,cooldown
86203,-0.1981,0.0517,0.0534,0.3675,1.1870,-9.7424,1.9198,7.0149,172.7246,0.0000,0.0000,0.0000,0.0000,0.0000,cooldown
86319,-0.2082,0.0706,0.0316,0.3005,1.2366,-9.7172,1.9036,7.0383,172.7063,0.0000,0.0000,0.0000,0.0000,0.0000,cooldown
86435,-0.2262,0.0690,-0.0200,0.2706,1.2193,-9.7501,1.8709,7.0470,172.7065,0.0000,0.0000,0.0000,0.0000,0.0000,cooldown
86551,-0.2014,0.0990,0.0620,0.3065,1.2067,-9.7645,1.8622,7.0464,172.7092,0.0000,0.0000,0.0000,0.0000,0.0000,cooldown
86667,-0.2319,0.0855,-0.0796,0.3214,1.2438,-9.7166,1.8639,7.0708,172.6852,0.0000,0.0000,0.0000,0.0000,0.0000,cooldown
86783,-0.2204,0.0881,-0.0594,0.2897,1.1936,-9.7501,1.8465,7.0614,172.6989,0.0000,0.0000,0.0000,0.0000,0.0000,cooldown
86899,-0.2256,0.0515,-0.0269,0.4040,1.1415,-9.7513,1.8975,7.0223,172.7233,0.0000,0.0000,0.0000,0.0000,0.0000,cooldown
87015,-0.1997,0.0338,0.0459,0.2837,1.2169,-9.7603,1.8729,7.0305,172.7219,0.0000,0.0000,0.0000,0.0000,0.0000,cooldown
87131,-0.2061,0.0883,-0.0648,0.3232,1.2390,-9.7334,1.8743,7.0525,172.7002,0.0000,0.0000,0.0000,0.0000,0.0000,cooldown
87247,-0.1964,0.0763,-0.0361,0.2987,1.2325,-9.7603,1.8608,7.0666,172.6901,0.0000,0.0000,0.0000,0.0000,0.0000,cooldown
87363,-0.2046,0.0438,0.0547,0.2819,1.1947,-9.7495,1.8391,7.0583,172.7037,0.0000,0.0000,0.0000,0.0000,0.0000,cooldown
87479,-0.1759,0.0694,0.0219,0.3137,1.3623,-9.7430,1.8378,7.1482,172.6169,0.0000,0.0000,0.0000,0.0000,0.0000,cooldown
87595,-0.1884,0.0498,-0.0500,0.3609,1.2055,-9.7136,1.8651,7.1404,172.6176,0.0000,0.0000,0.0000,0.0000,0.0000,cooldown
87711,-0.2019,0.0795,-0.0270,0.3077,1.2253,-9.7424,1.8581,7.1428,172.6170,0.0000,0.0000,0.0000,0.0000,0.0000,cooldown
87827,-0.2089,0.0353,-0.1231,0.3795,1.2343,-9.7364,1.8937,7.1505,172.6004,0.0000,0.0000,0.0000,0.0000,0.0000,cooldown
87943,-0.1964,0.0522,0.0260,0.2628,1.2594,-9.7208,1.8580,7.1733,172.5875,0.0000,0.0000,0.0000,0.0000,0.0000,cooldown
88059,-0.2117,0.0731,0.0401,0.3951,1.2181,-9.7849,1.9018,7.1650,172.5843,0.0000,0.0000,0.0000,0.0000,0.0000,cooldown
88175,-0.2367,0.0897,-0.0049,0.2837,1.2558,-9.7310,1.8773,7.1836,172.5727,0.0000,0.0000,0.0000,0.0000,0.0000,nothing
88291,-0.1851,0.0682,-0.0391,0.3232,1.1708,-9.7561,1.8779,7.1491,172.6058,0.0000,0.0000,0.0000,0.0000,0.0000,nothing
88407,-0.1558,0.0611,-0.0322,0.2873,1.2181,-9.7501,1.8576,7.1460,172.6140,0.0000,0.0000,0.0000,0.0000,0.0000,nothing
88523,-0.2290,0.0488,0.0004,0.3430,1.2079,-9.7489,1.8718,7.1373,172.6189,0.0000,0.0000,0.0000,0.0000,0.0000,nothing
88639,-0.2425,0.0597,-0.0264,0.3478,1.2947,-9.7495,1.8872,7.1796,172.5740,0.0000,0.0000,0.0000,0.0000,0.0000,nothing
88755,-0.2436,0.1215,0.0323,0.3154,1.3294,-9.6376,1.8842,7.2460,172.5104,0.0000,0.0000,0.0000,0.0000,0.0000,หนึ่ง
88871,-0.2323,0.1262,0.0578,0.2161,1.1199,-9.6723,1.8234,7.1822,172.5875,0.0000,0.0000,0.0000,0.0000,0.0000,หนึ่ง
88987,-0.1490,0.0372,0.0153,0.3262,1.1247,-9.7801,1.8309,7.1195,172.6465,0.0000,0.0000,0.0000,0.0000,0.0000,หนึ่ง
89103,-0.1735,0.0470,0.0489,0.3250,1.1780,-9.7370,1.8376,7.0970,172.6666,0.0000,0.0000,0.0000,0.0000,0.0000,หนึ่ง
89219,-0.1805,0.0453,0.0479,0.3184,1.2426,-9.7328,1.8397,7.1145,172.6491,0.0000,0.0000,0.0000,0.0000,0.0000,หนึ่ง
89335,-0.1966,0.0589,-0.0130,0.3220,1.2211,-9.7699,1.8431,7.1151,172.6477,0.0000,0.0000,0.0000,0.0000,0.0000,หนึ่ง
89451,-0.1936,0.0863,0.0247,0.3256,1.2337,-9.7687,1.8482,7.1229,172.6388,0.0000,0.0000,0.0000,0.0000,0.0000,หนึ่ง
89567,-0.1967,0.0600,-0.0229,0.3029,1.2199,-9.7795,1.8394,7.1213,172.6426,0.0000,0.0000,0.0000,0.0000,0.0000,หนึ่ง
89683,-0.2273,0.0596,-0.0072,0.3166,1.2067,-9.7430,1.8402,7.1149,172.6486,0.0000,0.0000,0.0000,0.0000,0.0000,หนึ่ง
89799,-0.2071,0.0525,-0.0184,0.2807,1.1714,-9.7591,1.8198,7.0876,172.6802,0.0000,0.0000,0.0000,0.0000,0.0000,หนึ่ง
89915,-0.2069,0.0814,0.0353,0.3184,1.2169,-9.7262,1.8238,7.0916,172.6753,0.0000,0.0000,0.0000,0.0000,0.0000,หนึ่ง
90031,-0.1943,0.0558,0.0270,0.3005,1.2474,-9.7340,1.8168,7.1123,172.6570,0.0000,0.0000,0.0000,0.0000,0.0000,หนึ่ง
90147,-0.1523,0.0395,-0.0256,0.3412,1.1977,-9.7262,1.8345,7.1027,172.6618,0.0000,0.0000,0.0000,0.0000,0.0000,หนึ่ง
90263,-0.1617,0.0218,-0.0072,0.1586,1.1391,-9.7597,1.7435,7.0581,172.7276,0.0000,0.0000,0.0000,0.0000,0.0000,หนึ่ง
90379,-0.1722,0.0354,0.0169,0.1544,1.1834,-9.7178,1.6598,7.0466,172.7586,0.0000,0.0000,0.0000,0.0000,0.0000,หนึ่ง
90495,-0.2059,0.0558,-0.0263,0.2676,1.2211,-9.7088,1.6505,7.0585,172.7492,0.0000,0.0000,0.0000,0.0000,0.0000,หนึ่ง
90611,-0.1280,0.0515,0.0209,0.2855,1.2732,-9.7256,1.6522,7.0981,172.7102,0.0000,0.0000,0.0000,0.0000,0.0000,หนึ่ง
90727,-0.1846,0.0507,0.0556,0.2831,1.2791,-9.7094,1.6525,7.1385,172.6708,0.0000,0.0000,0.0000,0.0000,0.0000,หนึ่ง
90843,-0.2020,0.0480,0.0158,0.4178,1.1894,-9.7459,1.7310,7.1198,172.6707,0.0000,0.0000,0.0000,0.0000,0.0000,หนึ่ง
90959,-0.2158,0.0604,-0.0034,0.2795,1.2474,-9.7346,1.7211,7.1377,172.6556,0.0000,0.0000,0.0000,0.0000,0.0000,หนึ่ง
91075,-0.1746,0.0800,0.0318,0.3172,1.2229,-9.7274,1.7343,7.1401,172.6501,0.0000,0.0000,0.0000,0.0000,0.0000,หนึ่ง
91191,-0.2545,0.0818,0.0213,0.3202,1.2019,-9.7304,1.7480,7.1299,172.6568,0.0000,0.0000,0.0000,0.0000,0.0000,หนึ่ง
91307,-0.2357,0.0480,0.0104,0.2592,1.2169,-9.7585,1.7241,7.1275,172.6648,0.0000,0.0000,0.0000,0.0000,0.0000,หนึ่ง
91423,-0.1857,0.0472,0.0491,0.2849,1.1540,-9.7633,1.7177,7.0885,172.7043,0.0000,0.0000,0.0000,0.0000,0.0000,หนึ่ง
91539,-0.1982,0.0787,-0.0014,0.3208,1.1900,-9.7627,1.7328,7.0742,172.7146,0.0000,0.0000,0.0000,0.0000,0.0000,หนึ่ง
91655,-0.2221,0.0710,-0.0139,0.3310,1.1654,-9.7549,1.7525,7.0477,172.7356,0.0000,0.0000,0.0000,0.0000,0.0000,หนึ่ง
91771,-0.1895,0.0551,0.0494,0.3328,1.2486,-9.7633,1.7709,7.0713,172.7081,0.0000,0.0000,0.0000,0.0000,0.0000,หนึ่ง
91887,-0.1894,0.0589,-0.0130,0.3753,1.1912,-9.7388,1.8129,7.0610,172.7076,0.0000,0.0000,0.0000,0.0000,0.0000,หนึ่ง
92003,-0.1772,0.0481,-0.0210,0.3083,1.2337,-9.7322,1.8116,7.0770,172.6925,0.0000,0.0000,0.0000,0.0000,0.0000,หนึ่ง
92119,-0.1919,0.0649,0.0443,0.3490,1.2043,-9.7819,1.8333,7.0707,172.6931,0.0000,0.0000,0.0000,0.0000,0.0000,หนึ่ง
92235,-0.1907,0.0688,-0.0194,0.2981,1.2127,-9.7196,1.8243,7.0745,172.6917,0.0000,0.0000,0.0000,0.0000,0.0000,หนึ่ง
92351,-0.1703,0.0573,0.0027,0.3268,1.2217,-9.7633,1.8321,7.0799,172.6845,0.0000,0.0000,0.0000,0.0000,0.0000,หนึ่ง
92467,-0.1902,0.0724,0.0070,0.3148,1.2001,-9.7376,1.8327,7.0742,172.6899,0.0000,0.0000,0.0000,0.0000,0.0000,หนึ่ง
92583,-0.1883,0.0613,0.0560,0.3538,1.1780,-9.7807,1.8552,7.0530,172.7047,0.0000,0.0000,0.0000,0.0000,0.0000,หนึ่ง
92699,-0.1861,0.0615,-0.0125,0.2712,1.2247,-9.7052,1.8285,7.0666,172.6983,0.0000,0.0000,0.0000,0.0000,0.0000,หนึ่ง
92815,-0.1858,0.0675,0.0277,0.3148,1.2307,-9.7579,1.8290,7.0784,172.6868,0.0000,0.0000,0.0000,0.0000,0.0000,หนึ่ง
92931,-0.2037,0.0470,-0.0135,0.3256,1.2349,-9.7453,1.8360,7.0923,172.6715,0.0000,0.0000,0.0000,0.0000,0.0000,หนึ่ง
93047,-0.1648,0.0900,0.0519,0.2915,1.2271,-9.7675,1.8220,7.0988,172.6687,0.0000,0.0000,0.0000,0.0000,0.0000,หนึ่ง
93163,-0.2233,0.0491,0.0369,0.3184,1.1965,-9.7328,1.8258,7.0895,172.6769,0.0000,0.0000,0.0000,0.0000,0.0000,หนึ่ง
93279,-0.1726,0.0652,0.0033,0.3412,1.2199,-9.7453,1.8421,7.0936,172.6687,0.0000,0.0000,0.0000,0.0000,0.0000,หนึ่ง
93395,-0.2251,0.0551,0.0170,0.2885,1.1930,-9.7370,1.8264,7.0824,172.6835,0.0000,0.0000,0.0000,0.0000,0.0000,หนึ่ง
93511,-0.1997,0.0673,0.0169,0.3376,1.2349,-9.7220,1.8410,7.0976,172.6651,0.0000,0.0000,0.0000,0.0000,0.0000,หนึ่ง
93627,-0.1891,0.0754,-0.0376,0.4543,1.0218,-9.6723,1.9237,6.9911,172.7465,0.0000,0.0000,0.0000,0.0000,0.0000,หนึ่ง
93743,-0.0630,-0.0826,-0.0230,0.5232,1.1247,-9.7459,2.0367,6.9495,172.7554,0.0000,0.0000,0.0000,0.0000,0.0000,break_time
93859,-0.3200,0.0412,0.0419,0.2789,1.4880,-9.7735,1.9944,7.1210,172.6021,0.0000,0.0000,0.0000,0.0000,0.0000,break_time
93975,-0.2872,0.0892,0.0464,0.3113,1.2097,-9.7070,1.9773,7.1190,172.6088,0.0000,0.0000,0.0000,0.0000,0.0000,break_time
94091,-0.2412,0.0713,0.0788,0.2694,1.1798,-9.7304,1.9370,7.0982,172.6396,0.0000,0.0000,0.0000,0.0000,0.0000,break_time
94207,-0.1984,0.0642,-0.0104,0.2574,1.1762,-9.7262,1.8939,7.0777,172.6708,0.0000,0.0000,0.0000,0.0000,0.0000,break_time
94323,-0.2260,0.0593,-0.0339,0.2867,1.2241,-9.7364,1.8719,7.0862,172.6683,0.0000,0.0000,0.0000,0.0000,0.0000,break_time
94439,-0.1875,0.0896,-0.0059,0.2987,1.1989,-9.7280,1.8592,7.0799,172.6777,0.0000,0.0000,0.0000,0.0000,0.0000,break_time
94555,-0.2068,0.0530,0.0183,0.3328,1.2378,-9.7358,1.8675,7.0961,172.6599,0.0000,0.0000,0.0000,0.0000,0.0000,break_time
94671,-0.2123,0.0630,-0.0161,0.3406,1.2247,-9.7358,1.8796,7.1030,172.6501,0.0000,0.0000,0.0000,0.0000,0.0000,break_time
94787,-0.1981,0.0543,-0.0339,0.3514,1.2217,-9.7489,1.8965,7.1065,172.6423,0.0000,0.0000,0.0000,0.0000,0.0000,break_time
94903,-0.2172,0.0588,-0.0195,0.2406,1.2319,-9.7639,1.8468,7.1148,172.6471,0.0000,0.0000,0.0000,0.0000,0.0000,break_time
95019,-0.1933,0.0826,0.0348,0.3430,1.2390,-9.7094,1.8627,7.1300,172.6282,0.0000,0.0000,0.0000,0.0000,0.0000,break_time
95135,-0.2379,0.0552,-0.0273,0.2849,1.2169,-9.7292,1.8429,7.1297,172.6336,0.0000,0.0000,0.0000,0.0000,0.0000,break_time
95251,-0.1899,0.0586,0.0211,0.2945,1.2121,-9.7645,1.8300,7.1240,172.6423,0.0000,0.0000,0.0000,0.0000,0.0000,break_time
95367,-0.2140,0.0671,-0.0110,0.3196,1.2235,-9.7280,1.8337,7.1280,172.6375,0.0000,0.0000,0.0000,0.0000,0.0000,break_time
95483,-0.1865,0.0600,0.0853,0.3723,1.2055,-9.7304,1.8678,7.1210,172.6357,0.0000,0.0000,0.0000,0.0000,0.0000,break_time
95599,-0.2232,0.0811,-0.0844,0.2496,1.2307,-9.7717,1.8261,7.1265,172.6409,0.0000,0.0000,0.0000,0.0000,0.0000,break_time
95715,-0.1733,0.0590,-0.0499,0.3579,1.2067,-9.7023,1.8530,7.1224,172.6381,0.0000,0.0000,0.0000,0.0000,0.0000,break_time
95831,-0.2229,0.0747,-0.0113,0.3430,1.2217,-9.6891,1.8688,7.1283,172.6283,0.0000,0.0000,0.0000,0.0000,0.0000,break_time
95947,-0.2012,0.0642,0.0472,0.3502,1.2235,-9.7555,1.8859,7.1299,172.6224,0.0000,0.0000,0.0000,0.0000,0.0000,break_time
96063,-0.1918,0.0547,0.0393,0.2897,1.2145,-9.7370,1.8665,7.1276,172.6296,0.0000,0.0000,0.0000,0.0000,0.0000,break_time
96179,-0.1915,0.0389,-0.0634,0.3663,1.1912,-9.7878,1.8927,7.1081,172.6417,0.0000,0.0000,0.0000,0.0000,0.0000,break_time
96295,-0.2005,0.0729,-0.0247,0.3053,1.2133,-9.7310,1.8818,7.1077,172.6450,0.0000,0.0000,0.0000,0.0000,0.0000,break_time
96411,-0.1776,0.0412,-0.0481,0.3538,1.2414,-9.7729,1.8993,7.1204,172.6281,0.0000,0.0000,0.0000,0.0000,0.0000,break_time
96527,-0.1926,0.0699,0.0923,0.3412,1.2319,-9.7238,1.9087,7.1299,172.6164,0.0000,0.0000,0.0000,0.0000,0.0000,break_time
96643,-0.1928,0.0534,-0.0484,0.3442,1.2642,-9.7459,1.9184,7.1556,172.5891,0.0000,0.0000,0.0000,0.0000,0.0000,break_time
96759,-0.1955,0.0499,0.0106,0.1604,1.2426,-9.7298,1.8204,7.1678,172.6022,0.0000,0.0000,0.0000,0.0000,0.0000,nothing
96875,-0.2030,0.0799,-0.0040,0.3316,1.2103,-9.7513,1.8317,7.1582,172.6088,0.0000,0.0000,0.0000,0.0000,0.0000,nothing
96991,-0.2008,0.0240,-0.0777,0.3346,1.2372,-9.7370,1.8437,7.1661,172.5981,0.0000,0.0000,0.0000,0.0000,0.0000,nothing
97107,-0.2084,0.0581,0.0082,0.2987,1.2307,-9.7286,1.8338,7.1701,172.5967,0.0000,0.0000,0.0000,0.0000,0.0000,nothing
97223,-0.1498,0.0431,0.0380,0.0323,1.1199,-9.7986,1.6686,7.1051,172.6996,0.0000,0.0000,0.0000,0.0000,0.0000,สอง
97339,-0.1753,0.1436,0.0364,0.2945,1.4791,-9.5939,1.6755,7.2689,172.5385,0.0000,0.0000,0.0000,0.0000,0.0000,สอง
97455,-0.3167,0.1115,-0.0044,0.2819,1.2774,-9.7663,1.6719,7.2869,172.5217,0.0000,0.0000,0.0000,0.0000,0.0000,สอง
97571,-0.2687,0.0733,-0.0248,0.3723,1.1630,-9.7316,1.7222,7.2393,172.5565,0.0000,0.0000,0.0000,0.0000,0.0000,สอง
97687,-0.2200,0.0506,-0.0070,0.2867,1.2037,-9.7735,1.7168,7.2171,172.5794,0.0000,0.0000,0.0000,0.0000,0.0000,สอง
97803,-0.2214,0.0691,0.0877,0.3238,1.1540,-9.7531,1.7340,7.1699,172.6213,0.0000,0.0000,0.0000,0.0000,0.0000,สอง
97919,-0.1879,0.0398,-0.0157,0.2969,1.2079,-9.7902,1.7330,7.1558,172.6352,0.0000,0.0000,0.0000,0.0000,0.0000,สอง
98035,-0.2150,0.0487,0.0072,0.3268,1.1654,-9.7400,1.7505,7.1222,172.6636,0.0000,0.0000,0.0000,0.0000,0.0000,สอง
98151,-0.2044,0.0710,-0.0413,0.3220,1.2331,-9.7585,1.7630,7.1298,172.6533,0.0000,0.0000,0.0000,0.0000,0.0000,สอง
98267,-0.2117,0.0928,0.0046,0.3202,1.1947,-9.7023,1.7742,7.1185,172.6615,0.0000,0.0000,0.0000,0.0000,0.0000,สอง
98383,-0.2315,0.0465,0.0011,0.3609,1.1947,-9.7609,1.8071,7.1040,172.6675,0.0000,0.0000,0.0000,0.0000,0.0000,สอง
98499,-0.1956,0.0718,-0.0300,0.2664,1.2492,-9.7400,1.7818,7.1242,172.6541,0.0000,0.0000,0.0000,0.0000,0.0000,สอง
98615,-0.2339,0.0528,0.0279,0.3095,1.1965,-9.7406,1.7842,7.1118,172.6656,0.0000,0.0000,0.0000,0.0000,0.0000,สอง
98731,-0.2042,0.0612,-0.0619,0.2849,1.2073,-9.7202,1.7724,7.1083,172.6718,0.0000,0.0000,0.0000,0.0000,0.0000,สอง
98847,-0.1952,0.0837,0.0515,0.3424,1.1738,-9.7118,1.7956,7.0863,172.6875,0.0000,0.0000,0.0000,0.0000,0.0000,สอง
98963,-0.1677,0.0472,-0.0593,0.2999,1.2175,-9.7651,1.7905,7.0880,172.6871,0.0000,0.0000,0.0000,0.0000,0.0000,สอง
99079,-0.1944,0.0600,0.0525,0.3190,1.2390,-9.7172,1.7980,7.1055,172.6683,0.0000,0.0000,0.0000,0.0000,0.0000,สอง
99195,-0.1835,0.0802,-0.0687,0.3244,1.2319,-9.7459,1.8074,7.1149,172.6568,0.0000,0.0000,0.0000,0.0000,0.0000,สอง
99311,-0.2072,0.0777,0.0147,0.3131,1.1942,-9.7436,1.8093,7.1018,172.6691,0.0000,0.0000,0.0000,0.0000,0.0000,สอง
99427,-0.1947,0.0495,-0.0262,0.3232,1.2337,-9.7501,1.8167,7.1123,172.6570,0.0000,0.0000,0.0000,0.0000,0.0000,สอง
99543,-0.1857,0.0690,-0.0564,0.3047,1.2067,-9.7358,1.8130,7.1073,172.6628,0.0000,0.0000,0.0000,0.0000,0.0000,สอง
99659,-0.2226,0.0597,-0.0215,0.3334,1.2307,-9.7585,1.8258,7.1150,172.6521,0.0000,0.0000,0.0000,0.0000,0.0000,สอง
99775,-0.2076,0.0562,0.0498,0.3059,1.2588,-9.7651,1.8212,7.1377,172.6313,0.0000,0.0000,0.0000,0.0000,0.0000,สอง
99891,-0.2252,0.0371,0.0639,0.3400,1.2283,-9.7250,1.8377,7.1433,172.6217,0.0000,0.0000,0.0000,0.0000,0.0000,สอง
100007,-0.2279,0.0571,0.0354,0.3484,1.2271,-9.7322,1.8573,7.1472,172.6130,0.0000,0.0000,0.0000,0.0000,0.0000,สอง
100123,-0.2106,0.0663,-0.0249,0.3250,1.2259,-9.7232,1.8615,7.1506,172.6086,0.0000,0.0000,0.0000,0.0000,0.0000,สอง
100239,-0.1974,0.0762,0.0499,0.3627,1.1918,-9.7543,1.8868,7.1316,172.6205,0.0000,0.0000,0.0000,0.0000,0.0000,สอง
100355,-0.2225,0.0774,0.0173,0.3226,1.2073,-9.7298,1.8866,7.1254,172.6265,0.0000,0.0000,0.0000,0.0000,0.0000,สอง
100471,-0.1951,0.0723,-0.0281,0.3328,1.2277,-9.7322,1.8922,7.1314,172.6193,0.0000,0.0000,0.0000,0.0000,0.0000,สอง
100587,-0.1845,0.0665,-0.0191,0.3041,1.1983,-9.7442,1.8804,7.1191,172.6343,0.0000,0.0000,0.0000,0.0000,0.0000,สอง
100703,-0.2159,0.0498,0.0506,0.3262,1.2474,-9.7424,1.8826,7.1364,172.6169,0.0000,0.0000,0.0000,0.0000,0.0000,สอง
100819,-0.2307,0.0799,0.0070,0.3526,1.2091,-9.7364,1.9001,7.1302,172.6184,0.0000,0.0000,0.0000,0.0000,0.0000,สอง
100935,-0.1989,0.0544,0.0323,0.3178,1.2426,-9.7483,1.8954,7.1433,172.6070,0.0000,0.0000,0.0000,0.0000,0.0000,สอง
101051,-0.1802,0.0710,0.0281,0.2939,1.2301,-9.7334,1.8774,7.1489,172.6062,0.0000,0.0000,0.0000,0.0000,0.0000,สอง
101167,-0.2011,0.0679,0.0612,0.3053,1.2037,-9.7771,1.8672,7.1355,172.6218,0.0000,0.0000,0.0000,0.0000,0.0000,สอง
101283,-0.1805,0.0823,0.0987,0.3460,1.2384,-9.7196,1.8826,7.1476,172.6061,0.0000,0.0000,0.0000,0.0000,0.0000,สอง
101399,-0.1791,0.0697,-0.0322,0.3304,1.2283,-9.7280,1.8874,7.1520,172.6006,0.0000,0.0000,0.0000,0.0000,0.0000,สอง
101515,-0.2056,0.0615,-0.0155,0.3250,1.2815,-9.7471,1.8880,7.1855,172.5681,0.0000,0.0000,0.0000,0.0000,0.0000,สอง
101631,-0.2234,0.0803,0.1174,0.3346,1.2534,-9.7316,1.8945,7.2004,172.5520,0.0000,0.0000,0.0000,0.0000,0.0000,สอง
101747,-0.2194,0.0680,0.0071,0.2532,1.2175,-9.7262,1.8531,7.1937,172.5690,0.0000,0.0000,0.0000,0.0000,0.0000,สอง
101863,-0.2435,0.0690,-0.0162,0.3047,1.2181,-9.7070,1.8462,7.1892,172.5751,0.0000,0.0000,0.0000,0.0000,0.0000,สอง
101979,-0.1845,0.0483,-0.0802,0.3208,1.2331,-9.7573,1.8484,7.1902,172.5736,0.0000,0.0000,0.0000,0.0000,0.0000,สอง
102095,-0.1838,0.0684,0.0294,0.3310,1.2145,-9.7681,1.8562,7.1795,172.5820,0.0000,0.0000,0.0000,0.0000,0.0000,สอง
102211,-0.2099,0.0519,0.0960,0.3460,1.2684,-9.7645,1.8718,7.2012,172.5570,0.0000,0.0000,0.0000,0.0000,0.0000,สอง
102327,-0.2320,0.0928,0.0427,0.2837,1.2432,-9.7424,1.8501,7.2080,172.5559,0.0000,0.0000,0.0000,0.0000,0.0000,สอง
102443,-0.1872,0.0481,0.0673,0.2975,1.1786,-9.7525,1.8386,7.1760,172.5898,0.0000,0.0000,0.0000,0.0000,0.0000,สอง
102559,-0.1764,0.0281,-0.0814,0.3687,1.1708,-9.7579,1.8696,7.1421,172.6148,0.0000,0.0000,0.0000,0.0000,0.0000,สอง
102675,-0.1652,0.0706,0.1033,0.3388,1.1906,-9.6993,1.8812,7.1273,172.6261,0.0000,0.0000,0.0000,0.0000,0.0000,สอง
102791,-0.1744,0.0558,-0.0566,0.3131,1.1900,-9.7436,1.8757,7.1105,172.6438,0.0000,0.0000,0.0000,0.0000,0.0000,สอง
102907,-0.1453,0.0566,-0.0181,0.3298,1.2378,-9.7268,1.8808,7.1243,172.6291,0.0000,0.0000,0.0000,0.0000,0.0000,สอง
103023,-0.1547,0.0515,0.0065,0.3406,1.2498,-9.7190,1.8918,7.1442,172.6071,0.0000,0.0000,0.0000,0.0000,0.0000,สอง
103139,-0.1719,0.1001,-0.0243,0.3304,1.2708,-9.7292,1.8955,7.1735,172.5778,0.0000,0.0000,0.0000,0.0000,0.0000,break_time
103255,-0.1575,0.0410,0.0292,0.3645,1.0960,-9.8938,1.9159,7.0867,172.6563,0.0000,0.0000,0.0000,0.0000,0.0000,break_time
103371,-0.1055,0.0146,-0.0780,0.3023,1.0990,-9.7962,1.8999,7.0176,172.7272,0.0000,0.0000,0.0000,0.0000,0.0000,break_time
103487,-0.1697,0.0663,0.0046,0.3526,1.2055,-9.7352,1.9157,7.0213,172.7195,0.0000,0.0000,0.0000,0.0000,0.0000,break_time
103603,-0.1670,0.0870,0.0183,0.3137,1.2259,-9.7549,1.9069,7.0351,172.7085,0.0000,0.0000,0.0000,0.0000,0.0000,break_time
103719,-0.1864,0.0619,0.0179,0.3418,1.2103,-9.7418,1.9156,7.0394,172.7021,0.0000,0.0000,0.0000,0.0000,0.0000,break_time
103835,-0.1937,0.0887,-0.0429,0.3029,1.2187,-9.7501,1.9006,7.0475,172.6982,0.0000,0.0000,0.0000,0.0000,0.0000,break_time
103951,-0.2188,0.0684,-0.0318,0.3340,1.2025,-9.7418,1.9054,7.0461,172.6983,0.0000,0.0000,0.0000,0.0000,0.0000,break_time
104067,-0.2194,0.0534,0.0101,0.3214,1.2474,-9.7465,1.9022,7.0704,172.6756,0.0000,0.0000,0.0000,0.0000,0.0000,break_time
104183,-0.2259,0.0765,0.0038,0.3113,1.2061,-9.7112,1.8942,7.0710,172.6772,0.0000,0.0000,0.0000,0.0000,0.0000,break_time
104299,-0.1986,0.0796,0.0443,0.3137,1.2349,-9.7579,1.8874,7.0848,172.6656,0.0000,0.0000,0.0000,0.0000,0.0000,break_time
104415,-0.2050,0.0733,0.0299,0.3083,1.2085,-9.7549,1.8783,7.0822,172.6705,0.0000,0.0000,0.0000,0.0000,0.0000,break_time
104531,-0.1869,0.0511,-0.0657,0.2987,1.2109,-9.7376,1.8649,7.0825,172.6737,0.0000,0.0000,0.0000,0.0000,0.0000,break_time
104647,-0.2053,0.0721,0.0229,0.3166,1.2349,-9.7352,1.8632,7.0968,172.6603,0.0000,0.0000,0.0000,0.0000,0.0000,break_time
104763,-0.2064,0.0810,-0.0498,0.3340,1.2253,-9.7370,1.8718,7.1039,172.6512,0.0000,0.0000,0.0000,0.0000,0.0000,break_time
104879,-0.2053,0.0695,-0.0412,0.3143,1.2043,-9.7370,1.8681,7.0982,172.6576,0.0000,0.0000,0.0000,0.0000,0.0000,break_time
104995,-0.1885,0.0821,0.0183,0.3119,1.1953,-9.7328,1.8634,7.0883,172.6685,0.0000,0.0000,0.0000,0.0000,0.0000,break_time
105111,-0.2352,0.0699,0.0308,0.3394,1.2552,-9.7561,1.8747,7.1122,172.6424,0.0000,0.0000,0.0000,0.0000,0.0000,break_time
105227,-0.2086,0.0509,0.0511,0.3143,1.2588,-9.7005,1.8713,7.1398,172.6165,0.0000,0.0000,0.0000,0.0000,0.0000,break_time
105343,-0.2402,0.0748,0.0125,0.3154,1.2420,-9.7280,1.8684,7.1531,172.6045,0.0000,0.0000,0.0000,0.0000,0.0000,break_time
105459,-0.2517,0.0697,0.0551,0.2783,1.2253,-9.7609,1.8435,7.1530,172.6109,0.0000,0.0000,0.0000,0.0000,0.0000,break_time
105575,-0.2135,0.0712,0.0405,0.2927,1.2384,-9.7412,1.8299,7.1619,172.6057,0.0000,0.0000,0.0000,0.0000,0.0000,break_time
105691,-0.2012,0.0438,0.0654,0.3418,1.2522,-9.7501,1.8461,7.1771,172.5868,0.0000,0.0000,0.0000,0.0000,0.0000,break_time
105807,-0.2251,0.0671,0.0098,0.2813,1.1989,-9.7549,1.8254,7.1598,172.6088,0.0000,0.0000,0.0000,0.0000,0.0000,break_time
105923,-0.1885,0.0727,-0.0555,0.3160,1.2313,-9.7154,1.8277,7.1657,172.6025,0.0000,0.0000,0.0000,0.0000,0.0000,break_time
106039,-0.2075,0.0521,0.0222,0.2658,1.2031,-9.7304,1.8003,7.1538,172.6209,0.0000,0.0000,0.0000,0.0000,0.0000,break_time
106155,-0.1879,0.0817,-0.0147,0.3328,1.2552,-9.7382,1.8144,7.1724,172.5993,0.0000,0.0000,0.0000,0.0000,0.0000,nothing
106271,-0.1981,0.0563,0.0352,0.2520,1.2618,-9.7489,1.7797,7.1924,172.5884,0.0000,0.0000,0.0000,0.0000,0.0000,nothing
106387,-0.2427,0.0698,0.0312,0.2927,1.2486,-9.7489,1.7723,7.2027,172.5802,0.0000,0.0000,0.0000,0.0000,0.0000,nothing
106503,-0.1283,0.0738,-0.0247,0.3669,1.0409,-9.7394,1.8096,7.0923,172.6781,0.0000,0.0000,0.0000,0.0000,0.0000,nothing
106619,-0.1838,0.0349,-0.0154,0.3544,1.3049,-9.7938,1.8342,7.1418,172.6240,0.0000,0.0000,0.0000,0.0000,0.0000,nothing
106735,-0.1932,0.0848,-0.0145,0.2712,1.3121,-9.6945,1.8096,7.1979,172.5758,0.0000,0.0000,0.0000,0.0000,0.0000,nothing
106851,-0.2511,0.1232,0.0207,0.3615,1.2899,-9.7663,1.8389,7.2301,172.5373,0.0000,0.0000,0.0000,0.0000,0.0000,nothing
106967,-0.2448,0.0833,-0.0245,0.3131,1.1235,-9.7860,1.8371,7.1615,172.6042,0.0000,0.0000,0.0000,0.0000,0.0000,nothing
107083,-0.1919,0.0582,0.0335,0.3340,1.1792,-9.7364,1.8484,7.1356,172.6265,0.0000,0.0000,0.0000,0.0000,0.0000,nothing
107199,-0.1513,0.0656,-0.0698,0.3442,1.1409,-9.7693,1.8640,7.0876,172.6689,0.0000,0.0000,0.0000,0.0000,0.0000,nothing
107315,-0.1673,0.0435,0.0177,0.2759,1.2785,-9.7872,1.8376,7.1230,172.6414,0.0000,0.0000,0.0000,0.0000,0.0000,nothing
107431,-0.1819,0.0795,0.0350,0.3639,1.1936,-9.7298,1.8664,7.1096,172.6470,0.0000,0.0000,0.0000,0.0000,0.0000,nothing
107547,-0.1770,0.0646,-0.0188,0.2843,1.2803,-9.7322,1.8457,7.1478,172.6154,0.0000,0.0000,0.0000,0.0000,0.0000,nothing
107663,-0.1951,0.0548,-0.0307,0.3166,1.1702,-9.7447,1.8459,7.1174,172.6447,0.0000,0.0000,0.0000,0.0000,0.0000,nothing
107779,-0.2018,0.0598,0.0183,0.2712,1.2558,-9.7639,1.8191,7.1383,172.6312,0.0000,0.0000,0.0000,0.0000,0.0000,nothing
107895,-0.1546,0.0593,-0.0432,0.3358,1.1636,-9.7208,1.8336,7.1068,172.6581,0.0000,0.0000,0.0000,0.0000,0.0000,nothing
108011,-0.2014,0.0627,0.0142,0.2933,1.2301,-9.7256,1.8216,7.1166,172.6516,0.0000,0.0000,0.0000,0.0000,0.0000,nothing
108127,-0.1749,0.0598,-0.0514,0.3621,1.2259,-9.7621,1.8503,7.1202,172.6409,0.0000,0.0000,0.0000,0.0000,0.0000,nothing
108243,-0.2135,0.0789,0.0333,0.3585,1.1918,-9.7172,1.8749,7.1070,172.6474,0.0000,0.0000,0.0000,0.0000,0.0000,nothing
108359,-0.1505,0.0732,-0.0098,0.3226,1.2043,-9.7795,1.8750,7.0979,172.6561,0.0000,0.0000,0.0000,0.0000,0.0000,nothing
