timestamp_ms,gyro_x,gyro_y,gyro_z,accel_x,accel_y,accel_z,roll,pitch,yaw,adc0,adc1,adc2,adc3,adc4,Label
101053,-0.1999,0.0533,0.0293,0.3232,1.3061,-9.7190,1.8008,7.1690,172.6059,0.0000,0.0000,0.0000,0.0000,0.0000,nothing
101169,-0.2184,0.0631,0.0206,0.3621,1.2540,-9.7346,1.8321,7.1857,172.5820,0.0000,0.0000,0.0000,0.0000,0.0000,nothing
101285,-0.2288,0.0577,-0.0352,0.2849,1.2462,-9.7322,1.8152,7.1966,172.5757,0.0000,0.0000,0.0000,0.0000,0.0000,nothing
101401,-0.2119,0.1020,0.0215,0.3053,1.2510,-9.7112,1.8123,7.2106,172.5628,0.0000,0.0000,0.0000,0.0000,0.0000,nothing
101517,-0.2288,0.0592,0.0509,0.3095,1.2085,-9.7088,1.8122,7.1987,172.5743,0.0000,0.0000,0.0000,0.0000,0.0000,nothing
101633,-0.2207,0.0837,-0.0007,0.3005,1.2115,-9.7316,1.8065,7.1882,172.5860,0.0000,0.0000,0.0000,0.0000,0.0000,nothing
101749,-0.2219,0.0917,-0.0037,0.3029,1.1965,-9.7364,1.8027,7.1696,172.6049,0.0000,0.0000,0.0000,0.0000,0.0000,nothing
101865,-0.2120,0.0573,-0.0035,0.3143,1.2331,-9.7292,1.8060,7.1746,172.5993,0.0000,0.0000,0.0000,0.0000,0.0000,nothing
101981,-0.2023,0.0695,0.0519,0.2903,1.1642,-9.7262,1.7951,7.1394,172.6361,0.0000,0.0000,0.0000,0.0000,0.0000,nothing
102097,-0.1879,0.0686,0.0282,0.3298,1.2241,-9.7663,1.8076,7.1395,172.6329,0.0000,0.0000,0.0000,0.0000,0.0000,nothing
102213,-0.2049,0.0559,-0.0168,0.3059,1.2013,-9.7280,1.8056,7.1292,172.6434,0.0000,0.0000,0.0000,0.0000,0.0000,nothing
102329,-0.1975,0.0766,0.0127,0.3220,1.2001,-9.7334,1.8131,7.1188,172.6516,0.0000,0.0000,0.0000,0.0000,0.0000,nothing
102445,-0.2338,0.0673,-0.0083,0.3370,1.1983,-9.7106,1.8290,7.1100,172.6562,0.0000,0.0000,0.0000,0.0000,0.0000,nothing
102561,-0.1911,0.0601,-0.0269,0.1724,1.1965,-9.7058,1.7473,7.1018,172.6843,0.0000,0.0000,0.0000,0.0000,0.0000,nothing
102677,-0.1954,0.0818,0.0188,0.3143,1.2247,-9.7436,1.7559,7.1076,172.6765,0.0000,0.0000,0.0000,0.0000,0.0000,nothing
102793,-0.1865,0.0598,-0.0817,0.3484,1.1906,-9.7340,1.7837,7.0938,172.6832,0.0000,0.0000,0.0000,0.0000,0.0000,nothing
102909,-0.1982,0.0416,0.0367,0.3154,1.1924,-9.7298,1.7897,7.0827,172.6925,0.0000,0.0000,0.0000,0.0000,0.0000,nothing
103025,-0.1868,0.0597,-0.0214,0.2801,1.2229,-9.7262,1.7744,7.0907,172.6884,0.0000,0.0000,0.0000,0.0000,0.0000,nothing
103141,-0.2029,0.0708,-0.0065,0.3705,1.1026,-9.7394,1.8135,7.0271,172.7404,0.0000,0.0000,0.0000,0.0000,0.0000,nothing
103257,-0.2162,0.0676,0.0065,0.2801,1.2103,-9.7023,1.7963,7.0351,172.7369,0.0000,0.0000,0.0000,0.0000,0.0000,nothing
103373,-0.2285,0.0547,0.0598,0.3729,1.1959,-9.7561,1.8340,7.0300,172.7324,0.0000,0.0000,0.0000,0.0000,0.0000,nothing
103489,-0.2022,0.0687,-0.0038,0.3065,1.2043,-9.7076,1.8301,7.0338,172.7297,0.0000,0.0000,0.0000,0.0000,0.0000,nothing
103605,-0.2129,0.0487,0.0637,0.2586,1.2319,-9.7412,1.7979,7.0510,172.7212,0.0000,0.0000,0.0000,0.0000,0.0000,nothing
103721,-0.2199,0.0624,0.0299,0.3394,1.2049,-9.7603,1.8158,7.0492,172.7184,0.0000,0.0000,0.0000,0.0000,0.0000,nothing
103837,-0.2091,0.0795,-0.0334,0.3460,1.1900,-9.7400,1.8362,7.0404,172.7218,0.0000,0.0000,0.0000,0.0000,0.0000,nothing
103953,-0.2211,0.0983,0.0243,0.2897,1.1971,-9.7340,1.8218,7.0372,172.7285,0.0000,0.0000,0.0000,0.0000,0.0000,nothing
104069,-0.2403,0.0701,0.0020,0.3095,1.1828,-9.7256,1.8205,7.0265,172.7392,0.0000,0.0000,0.0000,0.0000,0.0000,nothing
104185,-0.1992,0.0652,0.0555,0.2670,1.1983,-9.7298,1.7944,7.0257,172.7465,0.0000,0.0000,0.0000,0.0000,0.0000,nothing
104301,-0.2767,0.0849,-0.0338,0.2628,1.2815,-9.7040,1.7688,7.0751,172.7049,0.0000,0.0000,0.0000,0.0000,0.0000,nothing
104417,-0.2281,0.1873,0.0887,0.7255,1.3612,-9.3401,2.0232,7.1912,172.5267,0.0000,0.0000,0.0000,0.0000,0.0000,หนึ่ง
104533,-0.4323,0.1761,0.0094,0.2071,1.1576,-9.7424,1.9415,7.1495,172.5889,0.0000,0.0000,0.0000,0.0000,0.0000,หนึ่ง
104649,-0.0658,0.0383,-0.0559,0.2753,0.9643,-9.7489,1.9083,6.9989,172.7431,0.0000,0.0000,0.0000,0.0000,0.0000,หนึ่ง
104765,-0.1018,0.0387,0.0804,0.3208,1.2025,-9.7250,1.9050,7.0036,172.7395,0.0000,0.0000,0.0000,0.0000,0.0000,หนึ่ง
104881,-0.1911,0.0455,0.0124,0.3544,1.2576,-9.7130,1.9218,7.0405,172.6993,0.0000,0.0000,0.0000,0.0000,0.0000,หนึ่ง
104997,-0.2214,0.0714,-0.0436,0.3065,1.2432,-9.7268,1.9086,7.0646,172.6796,0.0000,0.0000,0.0000,0.0000,0.0000,หนึ่ง
105113,-0.2221,0.0822,-0.0101,0.3591,1.2498,-9.7328,1.9274,7.0894,172.6506,0.0000,0.0000,0.0000,0.0000,0.0000,หนึ่ง
105229,-0.2424,0.0728,-0.0394,0.3286,1.2007,-9.7190,1.9268,7.0844,172.6557,0.0000,0.0000,0.0000,0.0000,0.0000,หนึ่ง
105345,-0.2369,0.0727,0.0553,0.3148,1.1983,-9.7214,1.9182,7.0783,172.6638,0.0000,0.0000,0.0000,0.0000,0.0000,หนึ่ง
105461,-0.2136,0.0653,0.0383,0.3065,1.2085,-9.7537,1.9050,7.0764,172.6691,0.0000,0.0000,0.0000,0.0000,0.0000,หนึ่ง
105577,-0.2168,0.0669,0.0080,0.2819,1.1870,-9.7286,1.8792,7.0641,172.6877,0.0000,0.0000,0.0000,0.0000,0.0000,หนึ่ง
105693,-0.1994,0.0701,-0.0138,0.3370,1.2247,-9.7310,1.8881,7.0746,172.6753,0.0000,0.0000,0.0000,0.0000,0.0000,หนึ่ง
105809,-0.2296,0.0866,0.0488,0.2759,1.1971,-9.7340,1.8604,7.0680,172.6888,0.0000,0.0000,0.0000,0.0000,0.0000,หนึ่ง
105925,-0.2218,0.0682,-0.0243,0.3178,1.1876,-9.7412,1.8599,7.0559,172.7007,0.0000,0.0000,0.0000,0.0000,0.0000,หนึ่ง
106041,-0.2018,0.0758,0.0262,0.2765,1.2109,-9.7052,1.8359,7.0612,172.7017,0.0000,0.0000,0.0000,0.0000,0.0000,หนึ่ง
106157,-0.2112,0.0868,0.0057,0.3436,1.1606,-9.7519,1.8527,7.0333,172.7243,0.0000,0.0000,0.0000,0.0000,0.0000,หนึ่ง
106273,-0.2230,0.0753,-0.0218,0.2706,1.2109,-9.7364,1.8254,7.0387,172.7262,0.0000,0.0000,0.0000,0.0000,0.0000,หนึ่ง
106389,-0.2195,0.0958,-0.0333,0.3005,1.2067,-9.7537,1.8179,7.0398,172.7270,0.0000,0.0000,0.0000,0.0000,0.0000,หนึ่ง
106505,-0.1821,0.0384,0.0145,0.3538,1.0152,-9.7627,1.8426,6.9289,172.8279,0.0000,0.0000,0.0000,0.0000,0.0000,break_time
106621,0.0778,0.0957,-0.0500,0.3921,1.2558,-9.4514,1.8926,6.9907,172.7552,0.0000,0.0000,0.0000,0.0000,0.0000,break_time
106737,-0.4826,0.1498,0.0626,0.3490,1.5659,-9.7286,1.9064,7.2069,172.5426,0.0000,0.0000,0.0000,0.0000,0.0000,break_time
106853,-0.3390,0.1262,0.0153,0.2616,1.0367,-9.7394,1.8687,7.0936,172.6620,0.0000,0.0000,0.0000,0.0000,0.0000,break_time
106969,-0.2109,0.0763,0.0540,0.2753,1.1121,-9.7465,1.8426,7.0348,172.7255,0.0000,0.0000,0.0000,0.0000,0.0000,break_time
107085,-0.1925,0.0697,-0.0014,0.3202,1.1074,-9.7340,1.8456,6.9799,172.7778,0.0000,0.0000,0.0000,0.0000,0.0000,break_time
107201,-0.1947,0.0656,-0.0110,0.2771,1.2109,-9.7489,1.8225,6.9897,172.7743,0.0000,0.0000,0.0000,0.0000,0.0000,break_time
107317,-0.2019,0.0678,0.0673,0.3286,1.2169,-9.7226,1.8324,7.0038,172.7582,0.0000,0.0000,0.0000,0.0000,0.0000,break_time
107433,-0.2097,0.0414,0.0349,0.2861,1.2025,-9.7471,1.8159,7.0064,172.7598,0.0000,0.0000,0.0000,0.0000,0.0000,break_time
107549,-0.1765,0.0522,-0.0624,0.3232,1.1523,-9.7286,1.8233,6.9809,172.7826,0.0000,0.0000,0.0000,0.0000,0.0000,break_time
107665,-0.1839,0.1029,0.0224,0.3340,1.2091,-9.7280,1.8362,6.9909,172.7697,0.0000,0.0000,0.0000,0.0000,0.0000,break_time
107781,-0.2069,0.0755,-0.0364,0.3334,1.2211,-9.7328,1.8472,7.0065,172.7517,0.0000,0.0000,0.0000,0.0000,0.0000,break_time
107897,-0.2338,0.0470,-0.0469,0.3178,1.2833,-9.7034,1.8485,7.0588,172.7008,0.0000,0.0000,0.0000,0.0000,0.0000,break_time
108013,-0.2405,0.0672,0.0034,0.3184,1.2205,-9.7328,1.8496,7.0673,172.6923,0.0000,0.0000,0.0000,0.0000,0.0000,break_time
108129,-0.1872,0.0718,0.0131,0.2963,1.2013,-9.6981,1.8383,7.0664,172.6960,0.0000,0.0000,0.0000,0.0000,0.0000,break_time
108245,-0.1828,0.0425,0.0082,0.3208,1.1971,-9.7226,1.8421,7.0613,172.7000,0.0000,0.0000,0.0000,0.0000,0.0000,break_time
108361,-0.1786,0.0714,-0.0143,0.3029,1.2229,-9.7597,1.8342,7.0691,172.6945,0.0000,0.0000,0.0000,0.0000,0.0000,break_time
108477,-0.1684,0.0788,-0.0635,0.2885,1.2013,-9.7178,1.8196,7.0666,172.7006,0.0000,0.0000,0.0000,0.0000,0.0000,break_time
108593,-0.2324,0.0828,0.0165,0.3214,1.2097,-9.7112,1.8257,7.0696,172.6961,0.0000,0.0000,0.0000,0.0000,0.0000,break_time
108709,-0.1854,0.0813,0.0352,0.3562,1.2001,-9.7759,1.8504,7.0621,172.6972,0.0000,0.0000,0.0000,0.0000,0.0000,break_time
108825,-0.1840,0.0912,-0.0087,0.2783,1.1702,-9.7268,1.8281,7.0416,172.7226,0.0000,0.0000,0.0000,0.0000,0.0000,break_time
108941,-0.1891,0.0657,0.0329,0.2963,1.1804,-9.7453,1.8181,7.0277,172.7386,0.0000,0.0000,0.0000,0.0000,0.0000,break_time
109057,-0.2117,0.0810,-0.0713,0.3334,1.1971,-9.7184,1.8313,7.0268,172.7361,0.0000,0.0000,0.0000,0.0000,0.0000,break_time
109173,-0.1919,0.0593,0.0215,0.2741,1.2127,-9.7160,1.8086,7.0353,172.7337,0.0000,0.0000,0.0000,0.0000,0.0000,break_time
109289,-0.1997,0.0573,0.0296,0.3220,1.2061,-9.7250,1.8160,7.0384,172.7288,0.0000,0.0000,0.0000,0.0000,0.0000,break_time
109405,-0.1930,0.0568,0.0304,0.3328,1.2019,-9.7364,1.8287,7.0379,172.7261,0.0000,0.0000,0.0000,0.0000,0.0000,break_time
109521,-0.1915,0.0822,0.0491,0.3496,1.2109,-9.7328,1.8499,7.0428,172.7159,0.0000,0.0000,0.0000,0.0000,0.0000,nothing
109637,-0.2038,0.0553,-0.0472,0.2897,1.2049,-9.7136,1.8345,7.0454,172.7174,0.0000,0.0000,0.0000,0.0000,0.0000,nothing
109753,-0.1934,0.0838,0.0544,0.3131,1.2001,-9.7567,1.8335,7.0417,172.7212,0.0000,0.0000,0.0000,0.0000,0.0000,nothing
109869,-0.1865,0.0830,0.0090,0.3059,1.1936,-9.7172,1.8291,7.0374,172.7264,0.0000,0.0000,0.0000,0.0000,0.0000,nothing
109985,-0.2159,0.0619,0.0457,0.3406,1.2283,-9.7489,1.8447,7.0514,172.7089,0.0000,0.0000,0.0000,0.0000,0.0000,nothing
110101,-0.3130,0.1356,-0.0053,0.5363,1.1109,-9.5430,1.9774,7.0101,172.7136,0.0000,0.0000,0.0000,0.0000,0.0000,หนึ่ง
110217,-0.1153,0.1396,0.0702,0.0281,1.4252,-9.7890,1.7943,7.1390,172.6367,0.0000,0.0000,0.0000,0.0000,0.0000,หนึ่ง
110333,-0.2108,0.0997,0.0803,0.3699,1.2726,-9.6520,1.8323,7.1754,172.5919,0.0000,0.0000,0.0000,0.0000,0.0000,หนึ่ง
110449,-0.2469,0.0567,0.0180,0.3154,1.2522,-9.7477,1.8329,7.1896,172.5780,0.0000,0.0000,0.0000,0.0000,0.0000,หนึ่ง
110565,-0.2481,0.0494,0.1183,0.3178,1.1642,-9.7130,1.8357,7.1538,172.6120,0.0000,0.0000,0.0000,0.0000,0.0000,หนึ่ง
110681,-0.2033,0.0543,0.0905,0.2867,1.1630,-9.7633,1.8191,7.1173,172.6515,0.0000,0.0000,0.0000,0.0000,0.0000,หนึ่ง
110797,-0.2169,0.0630,-0.0389,0.3184,1.2259,-9.7304,1.8232,7.1233,172.6448,0.0000,0.0000,0.0000,0.0000,0.0000,หนึ่ง
110913,-0.2079,0.0841,0.0194,0.3382,1.2133,-9.7274,1.8385,7.1215,172.6426,0.0000,0.0000,0.0000,0.0000,0.0000,หนึ่ง
111029,-0.2308,0.0630,-0.0931,0.2975,1.2337,-9.7513,1.8280,7.1301,172.6370,0.0000,0.0000,0.0000,0.0000,0.0000,หนึ่ง
111145,-0.2296,0.0798,0.0446,0.3041,1.1870,-9.7322,1.8228,7.1121,172.6557,0.0000,0.0000,0.0000,0.0000,0.0000,หนึ่ง
111261,-0.1756,0.0631,-0.0245,0.3232,1.1894,-9.7364,1.8293,7.0969,172.6687,0.0000,0.0000,0.0000,0.0000,0.0000,หนึ่ง
111377,-0.2199,0.0615,0.0012,0.2981,1.1792,-9.7154,1.8208,7.0790,172.6883,0.0000,0.0000,0.0000,0.0000,0.0000,หนึ่ง
111493,-0.2038,0.0806,0.0203,0.2801,1.2402,-9.7220,1.8025,7.0978,172.6746,0.0000,0.0000,0.0000,0.0000,0.0000,หนึ่ง
111609,-0.2143,0.0645,0.1122,0.3304,1.2109,-9.7178,1.8154,7.0979,172.6713,0.0000,0.0000,0.0000,0.0000,0.0000,หนึ่ง
111725,-0.2333,0.0905,0.0189,0.2807,1.2390,-9.7220,1.7980,7.1141,172.6599,0.0000,0.0000,0.0000,0.0000,0.0000,หนึ่ง
111841,-0.2116,0.0828,0.0254,0.3412,1.1930,-9.6903,1.8182,7.1041,172.6646,0.0000,0.0000,0.0000,0.0000,0.0000,หนึ่ง
111957,-0.2432,0.0458,0.0515,0.3274,1.2319,-9.7262,1.8277,7.1152,172.6515,0.0000,0.0000,0.0000,0.0000,0.0000,หนึ่ง
112073,-0.2052,0.1009,-0.0162,0.2700,1.1965,-9.7178,1.8029,7.1053,172.6672,0.0000,0.0000,0.0000,0.0000,0.0000,หนึ่ง
112189,-0.2136,0.0597,0.0534,0.3053,1.1481,-9.7160,1.8013,7.0684,172.7034,0.0000,0.0000,0.0000,0.0000,0.0000,หนึ่ง
112305,-0.2114,0.0709,-0.0555,0.3436,1.1834,-9.7471,1.8216,7.0533,172.7129,0.0000,0.0000,0.0000,0.0000,0.0000,หนึ่ง
112421,-0.2188,0.0526,0.0371,0.3352,1.2115,-9.7430,1.8350,7.0564,172.7065,0.0000,0.0000,0.0000,0.0000,0.0000,หนึ่ง
112537,-0.1797,0.0672,0.0311,0.3137,1.1936,-9.7406,1.8346,7.0490,172.7138,0.0000,0.0000,0.0000,0.0000,0.0000,หนึ่ง
112653,-0.1785,0.0866,-0.0577,0.3502,1.2253,-9.6963,1.8563,7.0638,172.6940,0.0000,0.0000,0.0000,0.0000,0.0000,หนึ่ง
112769,-0.1812,0.0777,0.0450,0.3119,1.2175,-9.7561,1.8523,7.0684,172.6905,0.0000,0.0000,0.0000,0.0000,0.0000,หนึ่ง
112885,-0.2012,0.0800,0.0187,0.3113,1.1894,-9.7076,1.8494,7.0597,172.6997,0.0000,0.0000,0.0000,0.0000,0.0000,หนึ่ง
113001,-0.2236,0.0703,0.0369,0.3011,1.1774,-9.7172,1.8406,7.0443,172.7168,0.0000,0.0000,0.0000,0.0000,0.0000,หนึ่ง
113117,-0.1951,0.0956,0.0067,0.3286,1.1953,-9.6981,1.8492,7.0421,172.7167,0.0000,0.0000,0.0000,0.0000,0.0000,หนึ่ง
113233,-0.2147,0.0567,-0.0130,0.2789,1.1936,-9.7394,1.8270,7.0363,172.7280,0.0000,0.0000,0.0000,0.0000,0.0000,หนึ่ง
113349,-0.2079,0.0717,0.0012,0.3053,1.2205,-9.7166,1.8229,7.0483,172.7175,0.0000,0.0000,0.0000,0.0000,0.0000,หนึ่ง
113465,-0.2061,0.0863,0.0288,0.4555,1.1852,-9.7118,1.9071,7.0385,172.7052,0.0000,0.0000,0.0000,0.0000,0.0000,หนึ่ง
113581,-0.2210,0.0729,0.0769,0.3029,1.1953,-9.7358,1.8932,7.0343,172.7129,0.0000,0.0000,0.0000,0.0000,0.0000,หนึ่ง
113697,-0.2018,0.0639,0.0249,0.3310,1.2145,-9.7064,1.8977,7.0436,172.7027,0.0000,0.0000,0.0000,0.0000,0.0000,หนึ่ง
113813,-0.1984,0.0757,-0.0033,0.3047,1.2049,-9.7310,1.8859,7.0448,172.7047,0.0000,0.0000,0.0000,0.0000,0.0000,หนึ่ง
113929,-0.2367,0.0855,-0.0106,0.3053,1.2067,-9.7376,1.8755,7.0464,172.7058,0.0000,0.0000,0.0000,0.0000,0.0000,หนึ่ง
114045,-0.2318,0.0672,0.0281,0.3244,1.2001,-9.7436,1.8772,7.0436,172.7081,0.0000,0.0000,0.0000,0.0000,0.0000,หนึ่ง
114161,-0.2206,0.0628,0.0489,0.3107,1.2133,-9.7088,1.8714,7.0512,172.7023,0.0000,0.0000,0.0000,0.0000,0.0000,หนึ่ง
114277,-0.2069,0.0896,0.0000,0.3274,1.2073,-9.7489,1.8751,7.0516,172.7009,0.0000,0.0000,0.0000,0.0000,0.0000,หนึ่ง
114393,-0.2209,0.0667,-0.0135,0.2981,1.1983,-9.7298,1.8618,7.0483,172.7076,0.0000,0.0000,0.0000,0.0000,0.0000,หนึ่ง
114509,-0.2245,0.0592,-0.0022,0.2963,1.1798,-9.7316,1.8487,7.0344,172.7244,0.0000,0.0000,0.0000,0.0000,0.0000,หนึ่ง
114625,-0.2274,0.0712,0.0003,0.3059,1.1995,-9.7364,1.8424,7.0329,172.7274,0.0000,0.0000,0.0000,0.0000,0.0000,หนึ่ง
114741,-0.1955,0.0675,-0.0364,0.2909,1.1714,-9.7328,1.8282,7.0156,172.7478,0.0000,0.0000,0.0000,0.0000,0.0000,หนึ่ง
114857,-0.1973,0.0802,0.0742,0.2999,1.1947,-9.7184,1.8208,7.0146,172.7506,0.0000,0.0000,0.0000,0.0000,0.0000,หนึ่ง
114973,-0.2069,0.0440,-0.0574,0.3232,1.2043,-9.7160,1.8278,7.0193,172.7443,0.0000,0.0000,0.0000,0.0000,0.0000,หนึ่ง
115089,-0.2179,0.0585,-0.0590,0.3148,1.2570,-9.7561,1.8284,7.0513,172.7132,0.0000,0.0000,0.0000,0.0000,0.0000,หนึ่ง
115205,-0.2311,0.0688,0.0999,0.3298,1.2462,-9.6903,1.8388,7.0785,172.6842,0.0000,0.0000,0.0000,0.0000,0.0000,หนึ่ง
115321,-0.2153,0.0556,-0.0548,0.3322,1.2229,-9.7537,1.8485,7.0849,172.6755,0.0000,0.0000,0.0000,0.0000,0.0000,หนึ่ง
115437,-0.2491,0.1018,0.0189,0.3244,1.2031,-9.7328,1.8532,7.0807,172.6784,0.0000,0.0000,0.0000,0.0000,0.0000,หนึ่ง
115553,-0.2105,0.0474,0.0191,0.2759,1.1983,-9.7316,1.8290,7.0744,172.6907,0.0000,0.0000,0.0000,0.0000,0.0000,หนึ่ง
115669,-0.2041,0.1013,0.0519,0.3238,1.1846,-9.6903,1.8361,7.0635,172.6994,0.0000,0.0000,0.0000,0.0000,0.0000,หนึ่ง
115785,-0.1997,0.0776,-0.0189,0.2969,1.2199,-9.7190,1.8261,7.0723,172.6935,0.0000,0.0000,0.0000,0.0000,0.0000,หนึ่ง
115901,-0.2052,0.0742,-0.0018,0.3238,1.2361,-9.6999,1.8332,7.0908,172.6737,0.0000,0.0000,0.0000,0.0000,0.0000,หนึ่ง
116017,-0.1939,0.0728,-0.0488,0.3148,1.2025,-9.7238,1.8339,7.0863,172.6778,0.0000,0.0000,0.0000,0.0000,0.0000,หนึ่ง
116133,-0.2281,0.0892,-0.0601,0.3172,1.2121,-9.7334,1.8358,7.0872,172.6766,0.0000,0.0000,0.0000,0.0000,0.0000,หนึ่ง
116249,-0.2005,0.0660,-0.0300,0.3077,1.2049,-9.7358,1.8318,7.0836,172.6810,0.0000,0.0000,0.0000,0.0000,0.0000,หนึ่ง
116365,-0.1966,0.0605,-0.0049,0.3172,1.2265,-9.7232,1.8340,7.0938,172.6706,0.0000,0.0000,0.0000,0.0000,0.0000,หนึ่ง
116481,-0.2174,0.0660,-0.0188,0.3340,1.1918,-9.7418,1.8456,7.0815,172.6796,0.0000,0.0000,0.0000,0.0000,0.0000,หนึ่ง
116597,-0.2234,0.0519,-0.0489,0.2765,1.2091,-9.6969,1.8232,7.0838,172.6830,0.0000,0.0000,0.0000,0.0000,0.0000,หนึ่ง
116713,-0.2079,0.0699,-0.0187,0.3298,1.2109,-9.7058,1.8340,7.0862,172.6780,0.0000,0.0000,0.0000,0.0000,0.0000,หนึ่ง
116829,-0.2268,0.0825,0.0521,0.3418,1.2199,-9.7837,1.8492,7.0879,172.6725,0.0000,0.0000,0.0000,0.0000,0.0000,หนึ่ง
116945,-0.0338,0.1092,-0.0763,0.2358,0.7907,-9.6490,1.8045,6.8502,172.9139,0.0000,0.0000,0.0000,0.0000,0.0000,break_time
117061,-0.0048,-0.0068,-0.0157,0.4651,1.1265,-9.7639,1.8953,6.8226,172.9166,0.0000,0.0000,0.0000,0.0000,0.0000,break_time
117177,-0.1539,0.0214,-0.0350,0.4621,1.3749,-9.7400,1.9751,6.9435,172.7784,0.0000,0.0000,0.0000,0.0000,0.0000,break_time
117293,-0.2770,0.0672,0.0780,0.2299,1.2857,-9.6801,1.9127,7.0054,172.7357,0.0000,0.0000,0.0000,0.0000,0.0000,break_time
117409,-0.2686,0.0533,0.0427,0.3250,1.2163,-9.7322,1.9112,7.0168,172.7250,0.0000,0.0000,0.0000,0.0000,0.0000,break_time
117525,-0.2209,0.1002,-0.0042,0.3041,1.1648,-9.7064,1.8983,6.9991,172.7455,0.0000,0.0000,0.0000,0.0000,0.0000,break_time
117641,-0.2159,0.0635,0.0194,0.2640,1.2163,-9.7639,1.8620,7.0091,172.7454,0.0000,0.0000,0.0000,0.0000,0.0000,break_time
117757,-0.2169,0.0881,-0.0515,0.2729,1.2121,-9.7256,1.8353,7.0183,172.7433,0.0000,0.0000,0.0000,0.0000,0.0000,break_time
117873,-0.2061,0.0635,-0.0215,0.3651,1.2372,-9.7376,1.8649,7.0402,172.7146,0.0000,0.0000,0.0000,0.0000,0.0000,break_time
117989,-0.2046,0.0579,0.0504,0.2514,1.1953,-9.7166,1.8255,7.0373,172.7275,0.0000,0.0000,0.0000,0.0000,0.0000,break_time
118105,-0.1896,0.0529,-0.0155,0.3196,1.1906,-9.7699,1.8290,7.0279,172.7356,0.0000,0.0000,0.0000,0.0000,0.0000,break_time
118221,-0.2050,0.0515,0.0026,0.3244,1.2169,-9.7238,1.8357,7.0381,172.7241,0.0000,0.0000,0.0000,0.0000,0.0000,break_time
118337,-0.2097,0.0578,0.0239,0.2855,1.2157,-9.7106,1.8193,7.0475,172.7191,0.0000,0.0000,0.0000,0.0000,0.0000,break_time
118453,-0.1849,0.0511,-0.0902,0.3137,1.2103,-9.7292,1.8206,7.0515,172.7149,0.0000,0.0000,0.0000,0.0000,0.0000,break_time
118569,-0.1809,0.0581,-0.0380,0.2957,1.2211,-9.7495,1.8109,7.0600,172.7092,0.0000,0.0000,0.0000,0.0000,0.0000,break_time
118685,-0.2158,0.0695,0.0076,0.3172,1.2019,-9.7064,1.8156,7.0595,172.7085,0.0000,0.0000,0.0000,0.0000,0.0000,break_time
118801,-0.1947,0.0406,-0.0115,0.3310,1.2055,-9.7322,1.8273,7.0593,172.7057,0.0000,0.0000,0.0000,0.0000,0.0000,break_time
118917,-0.2183,0.0961,0.0898,0.2939,1.1971,-9.7052,1.8168,7.0562,172.7113,0.0000,0.0000,0.0000,0.0000,0.0000,break_time
119033,-0.1817,0.0712,0.0079,0.3418,1.2061,-9.7130,1.8351,7.0580,172.7050,0.0000,0.0000,0.0000,0.0000,0.0000,break_time
119149,-0.1964,0.0845,-0.0162,0.3603,1.1211,-9.7076,1.8627,7.0107,172.7437,0.0000,0.0000,0.0000,0.0000,0.0000,break_time
119265,-0.1738,0.0601,0.1144,0.2502,1.1211,-9.7388,1.8226,6.9661,172.7971,0.0000,0.0000,0.0000,0.0000,0.0000,break_time
119381,-0.1482,0.0487,-0.0620,0.3520,1.1918,-9.7316,1.8460,6.9672,172.7901,0.0000,0.0000,0.0000,0.0000,0.0000,break_time
119497,-0.2009,0.0755,0.0151,0.3304,1.2301,-9.7226,1.8545,6.9911,172.7647,0.0000,0.0000,0.0000,0.0000,0.0000,break_time
119613,-0.2001,0.0762,-0.0859,0.3340,1.2522,-9.7040,1.8645,7.0268,172.7276,0.0000,0.0000,0.0000,0.0000,0.0000,break_time
119729,-0.2297,0.0549,-0.0294,0.2340,1.2349,-9.7292,1.8147,7.0473,172.7205,0.0000,0.0000,0.0000,0.0000,0.0000,break_time
119845,-0.2180,0.0708,-0.0121,0.3909,1.2079,-9.7262,1.8617,7.0500,172.7059,0.0000,0.0000,0.0000,0.0000,0.0000,break_time
119961,-0.2090,0.0777,-0.0979,0.2406,1.2648,-9.7232,1.8161,7.0859,172.6827,0.0000,0.0000,0.0000,0.0000,0.0000,nothing
120077,-0.2136,0.0560,0.0568,0.3232,1.2522,-9.7232,1.8233,7.1108,172.6568,0.0000,0.0000,0.0000,0.0000,0.0000,nothing
120193,-0.2259,0.0579,0.0808,0.3083,1.2570,-9.7555,1.8205,7.1337,172.6354,0.0000,0.0000,0.0000,0.0000,0.0000,nothing
120309,-0.2067,0.0665,-0.0556,0.3358,1.1995,-9.7184,1.8348,7.1235,172.6416,0.0000,0.0000,0.0000,0.0000,0.0000,nothing
120425,-0.2098,0.0620,0.0904,0.2909,1.2289,-9.7238,1.8213,7.1311,172.6376,0.0000,0.0000,0.0000,0.0000,0.0000,nothing
120541,-0.2027,0.0915,-0.0615,0.3460,1.1846,-9.7531,1.8409,7.1100,172.6531,0.0000,0.0000,0.0000,0.0000,0.0000,nothing
120657,-0.2049,0.0652,0.0342,0.2316,1.2157,-9.7166,1.7924,7.1120,172.6633,0.0000,0.0000,0.0000,0.0000,0.0000,nothing
120773,-0.1887,0.0633,-0.0393,0.3669,1.1816,-9.7070,1.8280,7.0944,172.6716,0.0000,0.0000,0.0000,0.0000,0.0000,nothing
120889,-0.2278,0.0434,-0.0112,0.3077,1.3761,-9.7214,1.8247,7.1904,172.5793,0.0000,0.0000,0.0000,0.0000,0.0000,nothing
121005,-0.2439,0.0770,0.0618,0.3184,1.2103,-9.7064,1.8287,7.1818,172.5867,0.0000,0.0000,0.0000,0.0000,0.0000,nothing
121121,-0.2348,0.0889,-0.0011,0.3077,1.2067,-9.7358,1.8254,7.1698,172.5991,0.0000,0.0000,0.0000,0.0000,0.0000,nothing
121237,-0.2110,0.0755,0.0196,0.3274,1.2043,-9.7250,1.8343,7.1584,172.6080,0.0000,0.0000,0.0000,0.0000,0.0000,nothing
121353,-0.1994,0.0301,0.0187,0.2718,1.1840,-9.7334,1.8096,7.1358,172.6360,0.0000,0.0000,0.0000,0.0000,0.0000,nothing
121469,-0.2112,0.0613,0.0204,0.3352,1.2444,-9.6993,1.8249,7.1529,172.6156,0.0000,0.0000,0.0000,0.0000,0.0000,nothing
121585,-0.2213,0.0405,0.0065,0.3322,1.1918,-9.7070,1.8370,7.1371,172.6279,0.0000,0.0000,0.0000,0.0000,0.0000,nothing
121701,-0.2233,0.1089,-0.0494,0.3041,1.1876,-9.7226,1.8311,7.1195,172.6464,0.0000,0.0000,0.0000,0.0000,0.0000,nothing
121817,-0.2104,0.0900,0.0382,0.3771,1.1900,-9.7166,1.8686,7.1052,172.6507,0.0000,0.0000,0.0000,0.0000,0.0000,nothing
121933,-0.2144,0.0684,0.0598,0.2819,1.1977,-9.7304,1.8464,7.0962,172.6652,0.0000,0.0000,0.0000,0.0000,0.0000,nothing
122049,-0.2151,0.0533,0.0192,0.3208,1.2073,-9.7178,1.8494,7.0944,172.6661,0.0000,0.0000,0.0000,0.0000,0.0000,nothing
122165,-0.1944,0.0875,-0.0172,0.2951,1.2115,-9.7292,1.8369,7.0944,172.6693,0.0000,0.0000,0.0000,0.0000,0.0000,nothing
122281,-0.2007,0.0510,-0.0082,0.3412,1.2145,-9.7346,1.8524,7.0957,172.6641,0.0000,0.0000,0.0000,0.0000,0.0000,nothing
122397,-0.1914,0.0641,0.0044,0.2849,1.2181,-9.7418,1.8334,7.0986,172.6661,0.0000,0.0000,0.0000,0.0000,0.0000,nothing
122513,-0.2155,0.0825,-0.0003,0.3292,1.1762,-9.7573,1.8419,7.0756,172.6862,0.0000,0.0000,0.0000,0.0000,0.0000,nothing
122629,-0.1967,0.0949,-0.0872,0.3202,1.2163,-9.7555,1.8443,7.0784,172.6829,0.0000,0.0000,0.0000,0.0000,0.0000,nothing
122745,-0.2157,0.0470,0.0701,0.3472,1.2223,-9.7519,1.8622,7.0845,172.6724,0.0000,0.0000,0.0000,0.0000,0.0000,nothing
122861,-0.1876,0.0558,-0.0271,0.3107,1.2444,-9.6903,1.8581,7.1074,172.6513,0.0000,0.0000,0.0000,0.0000,0.0000,nothing
