timestamp_ms,motion_detected,roll_deg,pitch_deg,yaw_deg,filtered_accel_x_(m/s²),filtered_accel_y_(m/s²),filtered_accel_z_(m/s²),filtered_gyro_x_(deg/s),filtered_gyro_y_(deg/s),filtered_gyro_z_(deg/s),accel_magnitude,gyro_magnitude,adc0,adc1,adc2,adc3,adc4,Label
258588,-0.1993,0.0815,0.0534,0.3071,1.2690,-9.7310,1.7816,7.2007,172.5799,0.0000,0.0000,0.0000,0.0000,0.0000,nothing
258704,-0.2245,0.0803,-0.0255,0.2915,1.2384,-9.7633,1.7731,7.2032,172.5795,0.0000,0.0000,0.0000,0.0000,0.0000,nothing
258820,-0.2179,0.0838,0.0127,0.2700,1.2073,-9.7017,1.7540,7.1920,172.5950,0.0000,0.0000,0.0000,0.0000,0.0000,nothing
258936,-0.2045,0.0440,0.0089,0.2981,1.0864,-9.6957,1.7536,7.1122,172.6726,0.0000,0.0000,0.0000,0.0000,0.0000,nothing
259052,-0.1816,0.0817,0.0243,0.2903,1.2025,-9.7202,1.7480,7.1059,172.6801,0.0000,0.0000,0.0000,0.0000,0.0000,nothing
259168,-0.2008,0.0800,-0.0341,0.3873,1.2402,-9.7447,1.7991,7.1202,172.6538,0.0000,0.0000,0.0000,0.0000,0.0000,nothing
259284,-0.1932,0.0706,0.0540,0.3059,1.2295,-9.7316,1.7978,7.1278,172.6466,0.0000,0.0000,0.0000,0.0000,0.0000,nothing
259400,-0.2097,0.0800,0.0142,0.2909,1.2426,-9.7190,1.7881,7.1433,172.6340,0.0000,0.0000,0.0000,0.0000,0.0000,nothing
259516,-0.2435,0.0791,-0.0014,0.3244,1.2235,-9.7220,1.7989,7.1459,172.6289,0.0000,0.0000,0.0000,0.0000,0.0000,nothing
259632,-0.2079,0.0817,-0.0022,0.3023,1.2522,-9.7459,1.7952,7.1631,172.6130,0.0000,0.0000,0.0000,0.0000,0.0000,nothing
259748,-0.2116,0.0645,-0.0189,0.3442,1.2037,-9.7184,1.8170,7.1525,172.6180,0.0000,0.0000,0.0000,0.0000,0.0000,nothing
259864,-0.1868,0.0496,-0.0225,0.3256,1.2738,-9.7250,1.8254,7.1830,172.5863,0.0000,0.0000,0.0000,0.0000,0.0000,nothing
259980,-0.1862,0.0773,0.0774,0.3089,1.2875,-9.7142,1.8234,7.2193,172.5516,0.0000,0.0000,0.0000,0.0000,0.0000,nothing
260096,-0.2243,0.0862,-0.0074,0.3143,1.2235,-9.7447,1.8244,7.2127,172.5578,0.0000,0.0000,0.0000,0.0000,0.0000,nothing
260212,-0.1825,0.0532,0.0757,0.2915,1.2372,-9.6993,1.8127,7.2180,172.5555,0.0000,0.0000,0.0000,0.0000,0.0000,nothing
260328,-0.1557,0.0701,0.0180,0.2855,1.2456,-9.7549,1.7977,7.2236,172.5538,0.0000,0.0000,0.0000,0.0000,0.0000,nothing
260444,-0.2020,0.0817,-0.0230,0.3454,1.2349,-9.7262,1.8197,7.2244,172.5476,0.0000,0.0000,0.0000,0.0000,0.0000,nothing
260560,-0.2054,0.0615,0.0367,0.2658,1.2744,-9.6993,1.7934,7.2501,172.5291,0.0000,0.0000,0.0000,0.0000,0.0000,nothing
260676,-0.2458,0.0896,-0.0135,0.3119,1.2355,-9.7483,1.7958,7.2470,172.5315,0.0000,0.0000,0.0000,0.0000,0.0000,nothing
260792,-0.2372,0.1223,0.0221,0.2861,1.2001,-9.7178,1.7836,7.2261,172.5548,0.0000,0.0000,0.0000,0.0000,0.0000,nothing
260908,-0.2202,0.0999,-0.0303,0.3226,1.2384,-9.7531,1.7933,7.2267,172.5518,0.0000,0.0000,0.0000,0.0000,0.0000,nothing
261024,-0.2442,0.0672,-0.0229,0.2430,1.1750,-9.6837,1.7568,7.1958,172.5906,0.0000,0.0000,0.0000,0.0000,0.0000,nothing
261140,-0.1793,0.0503,0.0213,0.3065,1.2259,-9.7651,1.7595,7.1914,172.5943,0.0000,0.0000,0.0000,0.0000,0.0000,nothing
261256,-0.2149,0.0814,-0.0305,0.3244,1.2498,-9.7262,1.7731,7.2041,172.5786,0.0000,0.0000,0.0000,0.0000,0.0000,nothing
261372,-0.2083,0.0675,0.0656,0.2951,1.2037,-9.7322,1.7681,7.1885,172.5951,0.0000,0.0000,0.0000,0.0000,0.0000,nothing
261488,-0.1888,0.0667,-0.0622,0.3232,1.2001,-9.7262,1.7802,7.1727,172.6075,0.0000,0.0000,0.0000,0.0000,0.0000,nothing
261604,-0.2065,0.1042,0.0549,0.3567,1.2049,-9.6999,1.8111,7.1631,172.6092,0.0000,0.0000,0.0000,0.0000,0.0000,nothing
261720,-0.2228,0.0783,-0.0134,0.2753,1.1876,-9.7130,1.7912,7.1436,172.6330,0.0000,0.0000,0.0000,0.0000,0.0000,nothing
261836,-0.1951,0.0875,0.0183,0.2472,1.2109,-9.7262,1.7566,7.1387,172.6462,0.0000,0.0000,0.0000,0.0000,0.0000,nothing
261952,-0.1810,0.0523,0.0106,0.3514,1.2355,-9.6987,1.7867,7.1503,172.6276,0.0000,0.0000,0.0000,0.0000,0.0000,nothing
262068,-0.2093,0.0608,0.0101,0.4364,1.2295,-9.7250,1.8630,7.1551,172.6039,0.0000,0.0000,0.0000,0.0000,0.0000,nothing
262184,-0.2252,0.1080,0.0421,0.3849,1.2402,-9.7483,1.9011,7.1642,172.5853,0.0000,0.0000,0.0000,0.0000,0.0000,nothing
262300,-0.2646,0.1294,-0.0165,0.1963,1.2361,-9.6681,1.8268,7.1761,172.5926,0.0000,0.0000,0.0000,0.0000,0.0000,nothing
262416,-0.2251,0.0507,-0.0056,0.3023,1.2061,-9.7573,1.8202,7.1628,172.6072,0.0000,0.0000,0.0000,0.0000,0.0000,nothing
262532,-0.2039,0.0504,0.0083,0.3083,1.1403,-9.7226,1.8185,7.1152,172.6538,0.0000,0.0000,0.0000,0.0000,0.0000,nothing
262648,-0.1934,0.0204,-0.0177,0.3939,1.2726,-9.7765,1.8657,7.1449,172.6131,0.0000,0.0000,0.0000,0.0000,0.0000,nothing
262764,-0.2097,0.0723,0.0469,0.2592,1.2684,-9.6951,1.8311,7.1754,172.5923,0.0000,0.0000,0.0000,0.0000,0.0000,nothing
262880,-0.2132,0.0716,0.0305,0.3143,1.2875,-9.7172,1.8316,7.2123,172.5564,0.0000,0.0000,0.0000,0.0000,0.0000,หนึ่ง
262996,-0.2461,0.0833,0.0361,0.1945,1.1906,-9.7220,1.7623,7.1891,172.5958,0.0000,0.0000,0.0000,0.0000,0.0000,หนึ่ง
263112,-0.2341,0.0721,0.0264,0.3340,1.1528,-9.7202,1.7815,7.1463,172.6328,0.0000,0.0000,0.0000,0.0000,0.0000,หนึ่ง
263228,-0.1272,0.0690,0.0050,0.2837,1.1720,-9.7238,1.7693,7.1186,172.6626,0.0000,0.0000,0.0000,0.0000,0.0000,หนึ่ง
263344,-0.1490,0.0571,-0.0170,0.3071,1.2295,-9.7244,1.7718,7.1270,172.6539,0.0000,0.0000,0.0000,0.0000,0.0000,หนึ่ง
263460,-0.1894,0.0645,0.0502,0.3585,1.2648,-9.7184,1.8041,7.1553,172.6184,0.0000,0.0000,0.0000,0.0000,0.0000,หนึ่ง
263576,-0.2093,0.0635,0.0473,0.3131,1.2570,-9.6987,1.8071,7.1778,172.5959,0.0000,0.0000,0.0000,0.0000,0.0000,หนึ่ง
263692,-0.2342,0.0525,-0.0194,0.3196,1.2319,-9.7400,1.8128,7.1805,172.5919,0.0000,0.0000,0.0000,0.0000,0.0000,หนึ่ง
263808,-0.2361,0.0934,0.0100,0.3244,1.1983,-9.7088,1.8215,7.1657,172.6041,0.0000,0.0000,0.0000,0.0000,0.0000,หนึ่ง
263924,-0.2361,0.0604,0.0376,0.2855,1.1894,-9.7334,1.8061,7.1455,172.6275,0.0000,0.0000,0.0000,0.0000,0.0000,หนึ่ง
264040,-0.1855,0.0833,0.0221,0.3011,1.2217,-9.7322,1.8013,7.1461,172.6281,0.0000,0.0000,0.0000,0.0000,0.0000,หนึ่ง
264156,-0.2361,0.0735,0.0048,0.2855,1.2313,-9.7400,1.7877,7.1517,172.6260,0.0000,0.0000,0.0000,0.0000,0.0000,หนึ่ง
264272,-0.2264,0.0783,-0.0344,0.2837,1.2378,-9.7136,1.7750,7.1624,172.6187,0.0000,0.0000,0.0000,0.0000,0.0000,หนึ่ง
264388,-0.1813,0.0751,-0.0089,0.3137,1.2283,-9.7543,1.7802,7.1635,172.6164,0.0000,0.0000,0.0000,0.0000,0.0000,หนึ่ง
264504,-0.2433,0.0649,0.0151,0.3071,1.2193,-9.7076,1.7819,7.1627,172.6167,0.0000,0.0000,0.0000,0.0000,0.0000,หนึ่ง
264620,-0.2172,0.0874,0.0519,0.3137,1.2193,-9.7489,1.7866,7.1589,172.6192,0.0000,0.0000,0.0000,0.0000,0.0000,หนึ่ง
264736,-0.1794,0.0359,0.0232,0.3011,1.2181,-9.7184,1.7840,7.1571,172.6216,0.0000,0.0000,0.0000,0.0000,0.0000,หนึ่ง
264852,-0.2256,0.0796,-0.0083,0.2849,1.2923,-9.7358,1.7718,7.1973,172.5856,0.0000,0.0000,0.0000,0.0000,0.0000,break_time
264968,-0.2386,0.0698,-0.0082,0.3011,1.4683,-9.7274,1.7699,7.3359,172.4513,0.0000,0.0000,0.0000,0.0000,0.0000,break_time
265084,-0.3183,0.0813,0.0459,0.3119,1.2193,-9.6933,1.7758,7.3190,172.4664,0.0000,0.0000,0.0000,0.0000,0.0000,break_time
265200,-0.2153,0.0450,-0.0578,0.3035,1.0912,-9.7561,1.7753,7.2248,172.5580,0.0000,0.0000,0.0000,0.0000,0.0000,break_time
265316,-0.1400,0.0559,-0.0016,0.2849,1.1858,-9.7316,1.7642,7.1968,172.5879,0.0000,0.0000,0.0000,0.0000,0.0000,break_time
265432,-0.1541,0.0270,0.0035,0.2927,1.2151,-9.7286,1.7588,7.1887,172.5970,0.0000,0.0000,0.0000,0.0000,0.0000,break_time
265548,-0.1819,0.0717,-0.0264,0.3184,1.2618,-9.7172,1.7690,7.2093,172.5746,0.0000,0.0000,0.0000,0.0000,0.0000,break_time
265664,-0.1801,0.0913,0.0787,0.2873,1.2684,-9.7382,1.7597,7.2302,172.5565,0.0000,0.0000,0.0000,0.0000,0.0000,break_time
265780,-0.2412,0.0480,0.0155,0.2843,1.2115,-9.7160,1.7501,7.2176,172.5710,0.0000,0.0000,0.0000,0.0000,0.0000,break_time
265896,-0.1933,0.0875,0.0105,0.3370,1.2235,-9.7160,1.7721,7.2132,172.5701,0.0000,0.0000,0.0000,0.0000,0.0000,break_time
266012,-0.2117,0.1099,-0.0650,0.2855,1.2259,-9.7166,1.7619,7.2106,172.5750,0.0000,0.0000,0.0000,0.0000,0.0000,break_time
266128,-0.2192,0.0998,0.0429,0.3250,1.2223,-9.7615,1.7750,7.2028,172.5794,0.0000,0.0000,0.0000,0.0000,0.0000,break_time
266244,-0.2131,0.0813,-0.0061,0.2957,1.2720,-9.7424,1.7699,7.2261,172.5580,0.0000,0.0000,0.0000,0.0000,0.0000,break_time
266360,-0.2343,0.0511,0.0270,0.3232,1.3665,-9.7495,1.7810,7.3012,172.4824,0.0000,0.0000,0.0000,0.0000,0.0000,break_time
266476,-0.1974,0.0796,-0.0285,0.2969,1.0936,-9.7232,1.7767,7.2127,172.5694,0.0000,0.0000,0.0000,0.0000,0.0000,break_time
266592,-0.2194,0.0583,0.0170,0.3035,1.2636,-9.7238,1.7763,7.2315,172.5513,0.0000,0.0000,0.0000,0.0000,0.0000,break_time
266708,-0.2168,0.0995,0.0258,0.2897,1.2349,-9.7262,1.7680,7.2316,172.5532,0.0000,0.0000,0.0000,0.0000,0.0000,break_time
266824,-0.2189,0.0808,-0.0300,0.3053,1.2019,-9.7160,1.7698,7.2133,172.5705,0.0000,0.0000,0.0000,0.0000,0.0000,break_time
266940,-0.1981,0.0843,0.0562,0.2520,1.2253,-9.7370,1.7399,7.2090,172.5819,0.0000,0.0000,0.0000,0.0000,0.0000,break_time
267056,-0.2134,0.0695,0.0127,0.3208,1.2103,-9.7447,1.7530,7.1957,172.5917,0.0000,0.0000,0.0000,0.0000,0.0000,break_time
267172,-0.1985,0.0915,-0.0025,0.3053,1.2109,-9.7489,1.7557,7.1838,172.6026,0.0000,0.0000,0.0000,0.0000,0.0000,break_time
267288,-0.2120,0.0879,-0.0089,0.3220,1.2247,-9.7106,1.7686,7.1838,172.5994,0.0000,0.0000,0.0000,0.0000,0.0000,break_time
267404,-0.2094,0.0538,-0.0093,0.2951,1.2253,-9.7268,1.7641,7.1831,172.6012,0.0000,0.0000,0.0000,0.0000,0.0000,break_time
267520,-0.2188,0.0661,-0.0379,0.3184,1.2325,-9.7442,1.7734,7.1853,172.5969,0.0000,0.0000,0.0000,0.0000,0.0000,break_time
267636,-0.1783,0.0751,0.0204,0.2927,1.2223,-9.7459,1.7668,7.1813,172.6024,0.0000,0.0000,0.0000,0.0000,0.0000,break_time
267752,-0.2406,0.0624,0.0056,0.3160,1.2402,-9.7376,1.7745,7.1886,172.5934,0.0000,0.0000,0.0000,0.0000,0.0000,break_time
267868,-0.2165,0.0781,0.0165,0.2843,1.2522,-9.7124,1.7634,7.2041,172.5810,0.0000,0.0000,0.0000,0.0000,0.0000,break_time
267985,-0.2099,0.0766,-0.0425,0.3113,1.2504,-9.7681,1.7681,7.2128,172.5714,0.0000,0.0000,0.0000,0.0000,0.0000,nothing
268101,-0.1794,0.1175,-0.0040,0.2729,1.2468,-9.7328,1.7506,7.2213,172.5674,0.0000,0.0000,0.0000,0.0000,0.0000,nothing
268217,-0.2098,0.0474,0.0240,0.3089,1.2163,-9.7573,1.7555,7.2093,172.5778,0.0000,0.0000,0.0000,0.0000,0.0000,nothing
268333,-0.2406,0.0585,0.0279,0.2592,1.2349,-9.7100,1.7317,7.2129,172.5800,0.0000,0.0000,0.0000,0.0000,0.0000,nothing
268449,-0.2139,0.0961,-0.0513,0.3298,1.2163,-9.7322,1.7511,7.2036,172.5845,0.0000,0.0000,0.0000,0.0000,0.0000,nothing
268565,-0.1974,0.0879,0.0187,0.3059,1.2366,-9.6957,1.7552,7.2097,172.5775,0.0000,0.0000,0.0000,0.0000,0.0000,nothing
268681,-0.2128,0.0731,0.0147,0.3041,1.2301,-9.7603,1.7567,7.2067,172.5801,0.0000,0.0000,0.0000,0.0000,0.0000,nothing
268797,-0.2224,0.0709,0.0196,0.2915,1.2073,-9.7040,1.7518,7.1949,172.5927,0.0000,0.0000,0.0000,0.0000,0.0000,nothing
268913,-0.1828,0.0938,-0.0068,0.2688,1.1936,-9.7501,1.7333,7.1730,172.6184,0.0000,0.0000,0.0000,0.0000,0.0000,nothing
269029,-0.1975,0.0724,0.0690,0.3011,1.2019,-9.7220,1.7360,7.1602,172.6302,0.0000,0.0000,0.0000,0.0000,0.0000,nothing
269145,-0.1955,0.0762,-0.0079,0.3029,1.2426,-9.7064,1.7397,7.1733,172.6166,0.0000,0.0000,0.0000,0.0000,0.0000,nothing
269261,-0.1771,0.0718,0.0709,0.3741,1.2127,-9.7543,1.7838,7.1642,172.6148,0.0000,0.0000,0.0000,0.0000,0.0000,nothing
269377,-0.2155,0.1264,-0.0305,0.2400,1.2618,-9.6286,1.7474,7.1939,172.5948,0.0000,0.0000,0.0000,0.0000,0.0000,หนึ่ง
269493,-0.1930,0.0608,-0.0087,0.3178,1.1965,-9.7316,1.7583,7.1751,172.6104,0.0000,0.0000,0.0000,0.0000,0.0000,หนึ่ง
269609,-0.2759,0.0867,-0.0510,0.2604,1.2097,-9.6981,1.7351,7.1683,172.6225,0.0000,0.0000,0.0000,0.0000,0.0000,หนึ่ง
269725,-0.2033,0.0793,0.0676,0.2903,1.2396,-9.7382,1.7310,7.1767,172.6154,0.0000,0.0000,0.0000,0.0000,0.0000,หนึ่ง
269841,-0.2041,0.0566,-0.0218,0.2981,1.1696,-9.7286,1.7322,7.1442,172.6467,0.0000,0.0000,0.0000,0.0000,0.0000,หนึ่ง
269957,-0.1685,0.0473,0.0311,0.3256,1.3761,-9.7340,1.7487,7.2343,172.5552,0.0000,0.0000,0.0000,0.0000,0.0000,break_time
270073,-0.1422,0.0718,-0.0932,0.3256,1.2803,-9.7394,1.7637,7.2594,172.5271,0.0000,0.0000,0.0000,0.0000,0.0000,break_time
270189,-0.2050,0.0574,-0.0079,0.2933,1.2378,-9.7298,1.7586,7.2582,172.5296,0.0000,0.0000,0.0000,0.0000,0.0000,break_time
270305,-0.2222,0.0783,-0.0132,0.2658,1.1942,-9.7412,1.7379,7.2310,172.5609,0.0000,0.0000,0.0000,0.0000,0.0000,break_time
270421,-0.1929,0.0695,0.0082,0.2807,1.2193,-9.7489,1.7277,7.2205,172.5735,0.0000,0.0000,0.0000,0.0000,0.0000,break_time
270537,-0.1748,0.0544,-0.0248,0.3113,1.2265,-9.7525,1.7364,7.2148,172.5770,0.0000,0.0000,0.0000,0.0000,0.0000,break_time
270653,-0.2007,0.0536,0.0386,0.2682,1.2378,-9.7298,1.7193,7.2181,172.5778,0.0000,0.0000,0.0000,0.0000,0.0000,break_time
270769,-0.1996,0.0706,0.0139,0.3017,1.2241,-9.7459,1.7233,7.2118,172.5830,0.0000,0.0000,0.0000,0.0000,0.0000,break_time
270885,-0.2068,0.0653,0.0097,0.3496,1.2534,-9.7088,1.7554,7.2258,172.5618,0.0000,0.0000,0.0000,0.0000,0.0000,break_time
271001,-0.2071,0.0761,0.0566,0.2903,1.2283,-9.7627,1.7489,7.2200,172.5690,0.0000,0.0000,0.0000,0.0000,0.0000,break_time
271117,-0.2393,0.0568,0.0120,0.2652,1.2199,-9.6981,1.7295,7.2147,172.5788,0.0000,0.0000,0.0000,0.0000,0.0000,break_time
271233,-0.2200,0.0793,-0.0224,0.3196,1.2001,-9.6927,1.7439,7.1987,172.5909,0.0000,0.0000,0.0000,0.0000,0.0000,break_time
271349,-0.2022,0.0649,-0.0060,0.3400,1.2217,-9.7280,1.7681,7.1942,172.5895,0.0000,0.0000,0.0000,0.0000,0.0000,break_time
271465,-0.2084,0.0654,-0.0558,0.3053,1.2115,-9.7190,1.7698,7.1850,172.5980,0.0000,0.0000,0.0000,0.0000,0.0000,break_time
271581,-0.2052,0.0481,0.0440,0.2981,1.2504,-9.7244,1.7670,7.1989,172.5852,0.0000,0.0000,0.0000,0.0000,0.0000,break_time
271697,-0.1765,0.0513,-0.0135,0.3089,1.2378,-9.7352,1.7706,7.2033,172.5801,0.0000,0.0000,0.0000,0.0000,0.0000,break_time
271813,-0.1960,0.1058,-0.0645,0.3137,1.2588,-9.7011,1.7771,7.2219,172.5604,0.0000,0.0000,0.0000,0.0000,0.0000,break_time
271929,-0.2230,0.0877,0.1157,0.3274,1.2361,-9.7106,1.7910,7.2247,172.5543,0.0000,0.0000,0.0000,0.0000,0.0000,break_time
272045,-0.1978,0.0795,-0.0365,0.2903,1.2169,-9.7597,1.7809,7.2126,172.5685,0.0000,0.0000,0.0000,0.0000,0.0000,break_time
272161,-0.2177,0.0712,0.0598,0.2592,1.2468,-9.7178,1.7544,7.2222,172.5656,0.0000,0.0000,0.0000,0.0000,0.0000,break_time
272277,-0.2045,0.0905,-0.0357,0.3077,1.2181,-9.7166,1.7589,7.2142,172.5723,0.0000,0.0000,0.0000,0.0000,0.0000,break_time
272393,-0.1917,0.0656,0.0132,0.3310,1.2067,-9.7130,1.7767,7.2006,172.5812,0.0000,0.0000,0.0000,0.0000,0.0000,break_time
272509,-0.1864,0.0721,-0.0037,0.3250,1.2444,-9.7639,1.7882,7.2065,172.5727,0.0000,0.0000,0.0000,0.0000,0.0000,break_time
272625,-0.2023,0.0709,0.0817,0.2981,1.2516,-9.7465,1.7831,7.2173,172.5634,0.0000,0.0000,0.0000,0.0000,0.0000,break_time
272741,-0.2172,0.0649,-0.0120,0.3125,1.2432,-9.7442,1.7870,7.2223,172.5576,0.0000,0.0000,0.0000,0.0000,0.0000,break_time
272857,-0.2281,0.1035,0.0387,0.4585,1.2295,-9.7453,1.8757,7.2184,172.5394,0.0000,0.0000,0.0000,0.0000,0.0000,break_time
272973,-0.2001,0.0615,0.0067,0.3226,1.2241,-9.7436,1.8763,7.2122,172.5452,0.0000,0.0000,0.0000,0.0000,0.0000,break_time
273089,-0.1937,0.1085,0.0018,0.4310,1.2313,-9.7495,1.9399,7.2101,172.5308,0.0000,0.0000,0.0000,0.0000,0.0000,nothing
273205,-0.1926,0.0740,-0.0200,0.3214,1.2223,-9.8064,1.9322,7.1991,172.5434,0.0000,0.0000,0.0000,0.0000,0.0000,nothing
273321,-0.2410,0.0800,-0.0296,0.3113,1.2366,-9.7483,1.9204,7.2018,172.5439,0.0000,0.0000,0.0000,0.0000,0.0000,nothing
273437,-0.1842,0.1167,-0.0076,0.2741,1.2061,-9.7513,1.8881,7.1865,172.5671,0.0000,0.0000,0.0000,0.0000,0.0000,nothing
273553,-0.2012,0.0902,0.0384,0.2987,1.3456,-9.7603,1.8729,7.2526,172.5069,0.0000,0.0000,0.0000,0.0000,0.0000,nothing
273669,-0.2031,0.0661,0.0262,0.2765,1.2331,-9.7040,1.8477,7.2512,172.5146,0.0000,0.0000,0.0000,0.0000,0.0000,nothing
273785,-0.2184,0.0680,0.0560,0.3035,1.2462,-9.7148,1.8404,7.2567,172.5111,0.0000,0.0000,0.0000,0.0000,0.0000,nothing
273901,-0.2003,0.0799,-0.0140,0.2831,1.2199,-9.7178,1.8220,7.2463,172.5258,0.0000,0.0000,0.0000,0.0000,0.0000,nothing
274017,-0.2091,0.0733,-0.0172,0.3550,1.1870,-9.7310,1.8471,7.2167,172.5482,0.0000,0.0000,0.0000,0.0000,0.0000,หนึ่ง
274133,-0.2022,0.0619,-0.0068,0.3083,1.3091,-9.7663,1.8416,7.2582,172.5094,0.0000,0.0000,0.0000,0.0000,0.0000,หนึ่ง
274249,-0.2108,0.0697,0.0436,0.3532,1.2983,-9.7298,1.8635,7.2920,172.4712,0.0000,0.0000,0.0000,0.0000,0.0000,หนึ่ง
274365,-0.2607,0.0855,-0.0488,0.3023,1.2031,-9.7322,1.8537,7.2672,172.4977,0.0000,0.0000,0.0000,0.0000,0.0000,หนึ่ง
274481,-0.2315,0.0650,0.0391,0.2729,1.1750,-9.7645,1.8273,7.2263,172.5439,0.0000,0.0000,0.0000,0.0000,0.0000,break_time
274597,-0.2435,0.0665,-0.0185,0.2771,1.2259,-9.7615,1.8059,7.2192,172.5561,0.0000,0.0000,0.0000,0.0000,0.0000,break_time
274713,-0.1636,0.0510,0.0279,0.3047,1.1786,-9.7519,1.8029,7.1860,172.5889,0.0000,0.0000,0.0000,0.0000,0.0000,break_time
274829,-0.1684,0.0679,-0.0042,0.2915,1.1540,-9.7322,1.7930,7.1435,172.6327,0.0000,0.0000,0.0000,0.0000,0.0000,break_time
274945,-0.1789,0.0631,-0.0045,0.3256,1.2702,-9.7376,1.8037,7.1719,172.6025,0.0000,0.0000,0.0000,0.0000,0.0000,break_time
275061,-0.2158,0.0758,0.0127,0.2837,1.2438,-9.7256,1.7891,7.1832,172.5951,0.0000,0.0000,0.0000,0.0000,0.0000,break_time
275177,-0.2213,0.0976,-0.0251,0.3442,1.2115,-9.7322,1.8111,7.1740,172.5985,0.0000,0.0000,0.0000,0.0000,0.0000,break_time
275293,-0.2154,0.0879,0.0762,0.3400,1.1953,-9.7011,1.8292,7.1587,172.6089,0.0000,0.0000,0.0000,0.0000,0.0000,break_time
275409,-0.2033,0.1042,-0.0387,0.3017,1.2289,-9.7142,1.8227,7.1635,172.6059,0.0000,0.0000,0.0000,0.0000,0.0000,break_time
275525,-0.2110,0.0487,-0.0112,0.3053,1.2169,-9.7442,1.8185,7.1586,172.6116,0.0000,0.0000,0.0000,0.0000,0.0000,break_time
275641,-0.1917,0.0821,0.0004,0.3059,1.2103,-9.7310,1.8153,7.1514,172.6194,0.0000,0.0000,0.0000,0.0000,0.0000,break_time
275757,-0.2102,0.0800,-0.0004,0.2921,1.2355,-9.7489,1.8040,7.1582,172.6157,0.0000,0.0000,0.0000,0.0000,0.0000,break_time
275873,-0.1528,0.0709,0.0035,0.2903,1.2271,-9.7453,1.7929,7.1597,172.6169,0.0000,0.0000,0.0000,0.0000,0.0000,break_time
275989,-0.2014,0.0900,-0.0315,0.2783,1.2163,-9.7268,1.7763,7.1562,172.6244,0.0000,0.0000,0.0000,0.0000,0.0000,break_time
276105,-0.1494,0.0732,0.0146,0.3244,1.2169,-9.7304,1.7881,7.1531,172.6245,0.0000,0.0000,0.0000,0.0000,0.0000,break_time
276221,-0.2225,0.0808,-0.0529,0.3220,1.2426,-9.7232,1.7975,7.1657,172.6100,0.0000,0.0000,0.0000,0.0000,0.0000,break_time
276337,-0.1939,0.0735,0.0029,0.3047,1.2289,-9.7208,1.7958,7.1692,172.6070,0.0000,0.0000,0.0000,0.0000,0.0000,break_time
276453,-0.2149,0.1042,0.0249,0.2813,1.2498,-9.7382,1.7804,7.1834,172.5970,0.0000,0.0000,0.0000,0.0000,0.0000,break_time
276569,-0.1994,-0.0055,0.0100,0.3137,1.2091,-9.7388,1.7854,7.1724,172.6065,0.0000,0.0000,0.0000,0.0000,0.0000,break_time
276686,-0.2034,0.0684,0.0290,0.2753,1.2402,-9.7316,1.7676,7.1812,172.6022,0.0000,0.0000,0.0000,0.0000,0.0000,break_time
276802,-0.2038,0.0727,-0.0166,0.2819,1.2456,-9.7430,1.7553,7.1913,172.5954,0.0000,0.0000,0.0000,0.0000,0.0000,break_time
276918,-0.2446,0.0652,-0.0154,0.2963,1.3737,-9.7316,1.7524,7.2754,172.5143,0.0000,0.0000,0.0000,0.0000,0.0000,break_time
277034,-0.2074,0.0832,-0.0038,0.3166,1.2307,-9.7310,1.7621,7.2683,172.5189,0.0000,0.0000,0.0000,0.0000,0.0000,break_time
277150,-0.2150,0.0626,-0.0031,0.2951,1.2378,-9.7436,1.7580,7.2652,172.5229,0.0000,0.0000,0.0000,0.0000,0.0000,break_time
277266,-0.2219,0.0971,-0.0215,0.2921,1.2241,-9.7154,1.7530,7.2564,172.5326,0.0000,0.0000,0.0000,0.0000,0.0000,break_time
277382,-0.1888,0.0784,0.0160,0.3137,1.2361,-9.7465,1.7606,7.2532,172.5340,0.0000,0.0000,0.0000,0.0000,0.0000,nothing
277498,-0.1872,0.0942,-0.0414,0.2909,1.2157,-9.7579,1.7540,7.2377,172.5506,0.0000,0.0000,0.0000,0.0000,0.0000,nothing
277614,-0.1760,0.0902,0.0109,0.3017,1.1983,-9.7262,1.7549,7.2160,172.5715,0.0000,0.0000,0.0000,0.0000,0.0000,nothing
277730,-0.2086,0.0627,0.0412,0.2634,1.2372,-9.7364,1.7331,7.2184,172.5743,0.0000,0.0000,0.0000,0.0000,0.0000,nothing
277846,-0.2135,0.0740,-0.0577,0.3992,1.0960,-9.7280,1.7933,7.1390,172.6370,0.0000,0.0000,0.0000,0.0000,0.0000,หนึ่ง
277962,-0.1550,0.0717,0.0061,0.3753,1.2726,-9.7495,1.8326,7.1683,172.5988,0.0000,0.0000,0.0000,0.0000,0.0000,หนึ่ง
278078,-0.1708,0.0643,0.0063,0.3436,1.2175,-9.7280,1.8501,7.1644,172.5982,0.0000,0.0000,0.0000,0.0000,0.0000,หนึ่ง
278194,-0.1598,0.0669,0.0184,0.2334,1.2863,-9.7783,1.8004,7.1973,172.5786,0.0000,0.0000,0.0000,0.0000,0.0000,break_time
278310,-0.2168,0.0843,-0.0421,0.2562,1.3061,-9.6885,1.7706,7.2449,172.5396,0.0000,0.0000,0.0000,0.0000,0.0000,break_time
278426,-0.2544,0.0863,0.0038,0.3771,1.2839,-9.7184,1.8138,7.2724,172.5024,0.0000,0.0000,0.0000,0.0000,0.0000,break_time
278542,-0.2454,0.0653,0.0012,0.2813,1.2313,-9.7292,1.7968,7.2662,172.5126,0.0000,0.0000,0.0000,0.0000,0.0000,break_time
278658,-0.2346,0.0451,0.0177,0.3394,1.2462,-9.7226,1.8154,7.2695,172.5048,0.0000,0.0000,0.0000,0.0000,0.0000,break_time
278774,-0.2213,0.0849,0.0320,0.2610,1.2043,-9.7328,1.7863,7.2477,172.5331,0.0000,0.0000,0.0000,0.0000,0.0000,break_time
278890,-0.2150,0.0503,-0.0090,0.3699,1.1906,-9.7208,1.8239,7.2208,172.5500,0.0000,0.0000,0.0000,0.0000,0.0000,break_time
279006,-0.1970,0.0710,-0.0003,0.2837,1.2187,-9.7406,1.8071,7.2115,172.5631,0.0000,0.0000,0.0000,0.0000,0.0000,break_time
279122,-0.1737,0.0656,0.0364,0.3232,1.2486,-9.7400,1.8149,7.2205,172.5525,0.0000,0.0000,0.0000,0.0000,0.0000,break_time
279238,-0.2135,0.0513,-0.0157,0.3035,1.2420,-9.7166,1.8109,7.2266,172.5477,0.0000,0.0000,0.0000,0.0000,0.0000,break_time
279354,-0.2249,0.0875,0.0052,0.3358,1.1977,-9.7034,1.8265,7.2072,172.5626,0.0000,0.0000,0.0000,0.0000,0.0000,break_time
279470,-0.1710,0.0650,0.0187,0.3065,1.2109,-9.7058,1.8233,7.1973,172.5730,0.0000,0.0000,0.0000,0.0000,0.0000,break_time
279586,-0.1865,0.1018,-0.0284,0.3346,1.2408,-9.7166,1.8366,7.2049,172.5623,0.0000,0.0000,0.0000,0.0000,0.0000,break_time
279702,-0.1959,0.0693,0.0464,0.2999,1.2444,-9.6897,1.8288,7.2159,172.5536,0.0000,0.0000,0.0000,0.0000,0.0000,break_time
279818,-0.2112,0.0973,0.0061,0.3053,1.2857,-9.7340,1.8240,7.2464,172.5252,0.0000,0.0000,0.0000,0.0000,0.0000,break_time
279934,-0.2102,0.0792,0.0338,0.2825,1.2552,-9.7202,1.8067,7.2573,172.5189,0.0000,0.0000,0.0000,0.0000,0.0000,break_time
280050,-0.2191,0.0743,0.0465,0.3005,1.2121,-9.7232,1.8017,7.2418,172.5351,0.0000,0.0000,0.0000,0.0000,0.0000,break_time
280166,-0.1982,0.0461,-0.0187,0.3131,1.2259,-9.7082,1.8047,7.2369,172.5391,0.0000,0.0000,0.0000,0.0000,0.0000,break_time
280282,-0.1967,0.0615,-0.0014,0.2795,1.2636,-9.7298,1.7874,7.2529,172.5278,0.0000,0.0000,0.0000,0.0000,0.0000,break_time
280398,-0.2067,0.0814,-0.0087,0.3573,1.2361,-9.7525,1.8170,7.2495,172.5239,0.0000,0.0000,0.0000,0.0000,0.0000,break_time
280514,-0.2219,0.0634,0.0180,0.3220,1.2025,-9.7148,1.8237,7.2298,172.5414,0.0000,0.0000,0.0000,0.0000,0.0000,break_time
280630,-0.1978,0.0637,-0.0534,0.3005,1.2313,-9.7256,1.8169,7.2280,172.5448,0.0000,0.0000,0.0000,0.0000,0.0000,break_time
280746,-0.1966,0.0454,0.0553,0.3047,1.2193,-9.7202,1.8133,7.2198,172.5536,0.0000,0.0000,0.0000,0.0000,0.0000,break_time
280862,-0.1906,0.0746,-0.0300,0.2712,1.2331,-9.7220,1.7905,7.2204,172.5586,0.0000,0.0000,0.0000,0.0000,0.0000,break_time
280978,-0.1949,0.0871,0.0443,0.2801,1.2558,-9.7274,1.7750,7.2337,172.5494,0.0000,0.0000,0.0000,0.0000,0.0000,break_time
281094,-0.2164,0.0533,0.0239,0.2987,1.2235,-9.7256,1.7721,7.2270,172.5567,0.0000,0.0000,0.0000,0.0000,0.0000,break_time
281210,-0.2078,0.0765,-0.0061,0.3011,1.1876,-9.7088,1.7712,7.2014,172.5818,0.0000,0.0000,0.0000,0.0000,0.0000,nothing
281326,-0.1952,0.0487,-0.0075,0.3059,1.2133,-9.7621,1.7722,7.1893,172.5932,0.0000,0.0000,0.0000,0.0000,0.0000,nothing
281442,-0.2155,0.0658,-0.0079,0.3226,1.2402,-9.7400,1.7832,7.1957,172.5844,0.0000,0.0000,0.0000,0.0000,0.0000,nothing
281558,-0.1639,0.0972,0.0025,0.3035,1.2163,-9.7483,1.7818,7.1870,172.5932,0.0000,0.0000,0.0000,0.0000,0.0000,nothing
281674,-0.1975,0.0743,0.0004,0.3376,1.2301,-9.7304,1.8007,7.1883,172.5872,0.0000,0.0000,0.0000,0.0000,0.0000,nothing
281790,-0.2304,0.0912,-0.0139,0.3029,1.2492,-9.7286,1.7975,7.2009,172.5759,0.0000,0.0000,0.0000,0.0000,0.0000,nothing
281906,-0.2431,0.0579,-0.0393,0.3023,1.2199,-9.7262,1.7944,7.1953,172.5820,0.0000,0.0000,0.0000,0.0000,0.0000,nothing
282022,-0.1979,0.0905,-0.0116,0.3101,1.1792,-9.7214,1.7963,7.1671,172.6089,0.0000,0.0000,0.0000,0.0000,0.0000,nothing
282138,-0.1738,0.0566,-0.0286,0.2765,1.1912,-9.7645,1.7777,7.1456,172.6344,0.0000,0.0000,0.0000,0.0000,0.0000,nothing
282254,-0.1779,0.0723,0.0519,0.2999,1.2522,-9.7376,1.7749,7.1635,172.6177,0.0000,0.0000,0.0000,0.0000,0.0000,nothing
282370,-0.2014,0.0575,-0.0559,0.3029,1.2259,-9.7418,1.7741,7.1640,172.6174,0.0000,0.0000,0.0000,0.0000,0.0000,nothing
282486,-0.2243,0.0464,-0.0007,0.3089,1.2564,-9.6951,1.7776,7.1855,172.5956,0.0000,0.0000,0.0000,0.0000,0.0000,nothing
282602,-0.2312,0.0705,0.0053,0.2867,1.2313,-9.7262,1.7674,7.1882,172.5955,0.0000,0.0000,0.0000,0.0000,0.0000,nothing
282718,-0.2185,0.0732,0.0582,0.2897,1.1780,-9.7495,1.7596,7.1579,172.6268,0.0000,0.0000,0.0000,0.0000,0.0000,nothing
282834,-0.1925,0.0807,-0.0357,0.2975,1.2127,-9.7310,1.7574,7.1522,172.6329,0.0000,0.0000,0.0000,0.0000,0.0000,nothing
282950,-0.1992,0.0840,0.0278,0.2963,1.1971,-9.7172,1.7550,7.1390,172.6462,0.0000,0.0000,0.0000,0.0000,0.0000,nothing
283066,-0.2215,0.0472,0.0206,0.3430,1.2199,-9.7771,1.7790,7.1359,172.6435,0.0000,0.0000,0.0000,0.0000,0.0000,nothing
283182,-0.2116,0.0864,-0.0183,0.2430,1.1995,-9.7250,1.7432,7.1253,172.6624,0.0000,0.0000,0.0000,0.0000,0.0000,nothing
283298,-0.2365,0.0860,-0.0248,0.2879,1.2235,-9.7100,1.7374,7.1306,172.6587,0.0000,0.0000,0.0000,0.0000,0.0000,nothing
283414,-0.2089,0.0567,0.0155,0.2855,1.2157,-9.7597,1.7299,7.1272,172.6637,0.0000,0.0000,0.0000,0.0000,0.0000,nothing
283530,-0.1932,0.0578,-0.0106,0.3220,1.1654,-9.7082,1.7455,7.0988,172.6877,0.0000,0.0000,0.0000,0.0000,0.0000,nothing
283646,-0.1785,0.0601,-0.0052,0.3735,1.2067,-9.7328,1.7891,7.0952,172.6805,0.0000,0.0000,0.0000,0.0000,0.0000,nothing
283762,-0.2069,0.0573,0.0495,0.2807,1.2738,-9.7286,1.7741,7.1313,172.6491,0.0000,0.0000,0.0000,0.0000,0.0000,nothing
283878,-0.2230,0.1084,0.0353,0.1628,1.2480,-9.7208,1.6919,7.1497,172.6508,0.0000,0.0000,0.0000,0.0000,0.0000,nothing
283994,-0.2194,0.0806,0.0319,0.2957,1.2271,-9.7459,1.6951,7.1520,172.6478,0.0000,0.0000,0.0000,0.0000,0.0000,nothing
284110,-0.1986,0.0774,-0.0646,0.3005,1.2103,-9.7364,1.7011,7.1451,172.6532,0.0000,0.0000,0.0000,0.0000,0.0000,nothing
284226,-0.1655,0.0492,0.0293,0.2658,1.1930,-9.7220,1.6864,7.1299,172.6714,0.0000,0.0000,0.0000,0.0000,0.0000,nothing
284342,-0.2093,0.0612,0.0598,0.3304,1.2127,-9.7070,1.7111,7.1286,172.6668,0.0000,0.0000,0.0000,0.0000,0.0000,nothing
284458,-0.1585,0.1007,0.0123,0.3262,1.1546,-9.6975,1.7313,7.0945,172.6952,0.0000,0.0000,0.0000,0.0000,0.0000,error_redo
284574,-0.1945,0.0913,0.0180,0.2275,1.2887,-9.6693,1.6919,7.1438,172.6565,0.0000,0.0000,0.0000,0.0000,0.0000,error_redo
284690,-0.1850,0.0787,0.0379,0.3262,1.2504,-9.7292,1.7132,7.1614,172.6344,0.0000,0.0000,0.0000,0.0000,0.0000,error_redo
284806,-0.2106,0.0656,-0.0049,0.2849,1.2049,-9.7017,1.7088,7.1530,172.6437,0.0000,0.0000,0.0000,0.0000,0.0000,error_redo
284922,-0.2014,0.0676,-0.0135,0.3406,1.2007,-9.7447,1.7367,7.1397,172.6500,0.0000,0.0000,0.0000,0.0000,0.0000,error_redo
285038,-0.1772,0.0798,-0.0282,0.2628,1.1971,-9.7172,1.7168,7.1278,172.6663,0.0000,0.0000,0.0000,0.0000,0.0000,error_redo
285154,-0.1795,0.0721,0.0116,0.2909,1.2097,-9.7304,1.7150,7.1234,172.6710,0.0000,0.0000,0.0000,0.0000,0.0000,error_redo
285270,-0.1929,0.0581,0.0556,0.2795,1.2420,-9.7531,1.7064,7.1365,172.6602,0.0000,0.0000,0.0000,0.0000,0.0000,error_redo
285386,-0.2023,0.0923,-0.0348,0.3328,1.2301,-9.7328,1.7300,7.1428,172.6486,0.0000,0.0000,0.0000,0.0000,0.0000,error_redo
285502,-0.1996,0.0645,0.0342,0.2819,1.2247,-9.7400,1.7215,7.1449,172.6485,0.0000,0.0000,0.0000,0.0000,0.0000,error_redo
285618,-0.2090,0.0425,-0.0521,0.3071,1.2235,-9.7154,1.7290,7.1478,172.6440,0.0000,0.0000,0.0000,0.0000,0.0000,error_redo
285734,-0.1873,0.0593,0.0607,0.3190,1.2576,-9.7669,1.7417,7.1664,172.6228,0.0000,0.0000,0.0000,0.0000,0.0000,error_redo
285850,-0.2292,0.1051,0.0187,0.2987,1.2169,-9.6933,1.7427,7.1650,172.6240,0.0000,0.0000,0.0000,0.0000,0.0000,error_redo
285966,-0.1934,0.0590,-0.0375,0.3514,1.2175,-9.7777,1.7728,7.1578,172.6237,0.0000,0.0000,0.0000,0.0000,0.0000,error_redo
286082,-0.2268,0.0555,-0.0131,0.3059,1.2372,-9.6945,1.7747,7.1689,172.6124,0.0000,0.0000,0.0000,0.0000,0.0000,error_redo
286198,-0.2234,0.0578,0.0035,0.3268,1.2205,-9.7603,1.7876,7.1644,172.6137,0.0000,0.0000,0.0000,0.0000,0.0000,error_redo
286314,-0.1834,0.0485,-0.0398,0.2945,1.2384,-9.7597,1.7803,7.1708,172.6092,0.0000,0.0000,0.0000,0.0000,0.0000,error_redo
286430,-0.2154,0.0819,0.1080,0.2909,1.2283,-9.7232,1.7723,7.1734,172.6087,0.0000,0.0000,0.0000,0.0000,0.0000,error_redo
286546,-0.1919,0.0372,-0.0020,0.2855,1.2313,-9.7567,1.7613,7.1750,172.6098,0.0000,0.0000,0.0000,0.0000,0.0000,error_redo
286662,-0.2067,0.0514,-0.0592,0.3184,1.2564,-9.7322,1.7711,7.1927,172.5902,0.0000,0.0000,0.0000,0.0000,0.0000,error_redo
286778,-0.1922,0.0886,0.0239,0.3358,1.2181,-9.7112,1.7904,7.1880,172.5901,0.0000,0.0000,0.0000,0.0000,0.0000,error_redo
286894,-0.2244,0.1001,-0.0189,0.2640,1.2492,-9.7513,1.7651,7.1990,172.5856,0.0000,0.0000,0.0000,0.0000,0.0000,error_redo
287010,-0.2558,0.0646,0.0004,0.3166,1.2343,-9.7358,1.7734,7.2012,172.5814,0.0000,0.0000,0.0000,0.0000,0.0000,error_redo
287126,-0.2442,0.0799,0.0071,0.3137,1.2307,-9.7322,1.7792,7.2014,172.5798,0.0000,0.0000,0.0000,0.0000,0.0000,error_redo
287242,-0.1997,0.0578,-0.0076,0.2843,1.2295,-9.7388,1.7672,7.2005,172.5836,0.0000,0.0000,0.0000,0.0000,0.0000,cooldown
287358,-0.2191,0.0723,-0.0053,0.3059,1.1900,-9.7052,1.7696,7.1792,172.6037,0.0000,0.0000,0.0000,0.0000,0.0000,cooldown
287474,-0.2358,0.0832,0.0469,0.3131,1.2079,-9.7603,1.7750,7.1664,172.6148,0.0000,0.0000,0.0000,0.0000,0.0000,cooldown
287590,-0.2376,0.0953,0.0166,0.3148,1.1738,-9.7442,1.7813,7.1363,172.6425,0.0000,0.0000,0.0000,0.0000,0.0000,cooldown
287706,-0.2191,0.0597,0.0029,0.2909,1.2037,-9.7525,1.7727,7.1259,172.6547,0.0000,0.0000,0.0000,0.0000,0.0000,cooldown
287822,-0.1836,0.0620,-0.0056,0.2975,1.2612,-9.7142,1.7694,7.1527,172.6295,0.0000,0.0000,0.0000,0.0000,0.0000,cooldown
287938,-0.2373,0.0762,0.0258,0.2813,1.2456,-9.7220,1.7569,7.1672,172.6184,0.0000,0.0000,0.0000,0.0000,0.0000,cooldown
288054,-0.2459,0.0909,0.0211,0.3029,1.1977,-9.7286,1.7582,7.1520,172.6328,0.0000,0.0000,0.0000,0.0000,0.0000,cooldown
288170,-0.2202,0.0667,0.0431,0.3190,1.2061,-9.7214,1.7689,7.1437,172.6383,0.0000,0.0000,0.0000,0.0000,0.0000,cooldown
288286,-0.2247,0.0832,0.0115,0.3250,1.0750,-9.7268,1.7822,7.0599,172.7164,0.0000,0.0000,0.0000,0.0000,0.0000,cooldown
288402,-0.1750,0.0792,0.0468,0.2753,1.2199,-9.6945,1.7655,7.0708,172.7100,0.0000,0.0000,0.0000,0.0000,0.0000,cooldown
288518,-0.2176,0.0930,-0.0050,0.2741,1.2642,-9.7172,1.7492,7.1046,172.6811,0.0000,0.0000,0.0000,0.0000,0.0000,cooldown
288634,-0.2146,0.0618,-0.0075,0.2729,1.2468,-9.7082,1.7340,7.1257,172.6642,0.0000,0.0000,0.0000,0.0000,0.0000,cooldown
288750,-0.2134,0.0731,0.0532,0.2885,1.2295,-9.7555,1.7287,7.1311,172.6602,0.0000,0.0000,0.0000,0.0000,0.0000,cooldown
288866,-0.2113,0.0768,0.0015,0.3328,1.1947,-9.7136,1.7505,7.1188,172.6669,0.0000,0.0000,0.0000,0.0000,0.0000,cooldown
288982,-0.1962,0.0763,0.0226,0.3274,1.2516,-9.7430,1.7664,7.1386,172.6439,0.0000,0.0000,0.0000,0.0000,0.0000,cooldown
289098,-0.2183,0.0784,-0.0390,0.3113,1.2235,-9.7082,1.7720,7.1427,172.6386,0.0000,0.0000,0.0000,0.0000,0.0000,cooldown
289214,-0.1816,0.0488,0.0334,0.3382,1.2349,-9.7118,1.7926,7.1526,172.6239,0.0000,0.0000,0.0000,0.0000,0.0000,cooldown
289330,-0.2131,0.0653,-0.0087,0.2873,1.2438,-9.7382,1.7809,7.1649,172.6148,0.0000,0.0000,0.0000,0.0000,0.0000,cooldown
289446,-0.2371,0.0690,-0.0112,0.2646,1.2037,-9.7178,1.7576,7.1543,172.6308,0.0000,0.0000,0.0000,0.0000,0.0000,cooldown
289562,-0.2357,0.0637,0.0566,0.2795,1.2349,-9.7256,1.7452,7.1622,172.6261,0.0000,0.0000,0.0000,0.0000,0.0000,cooldown
289678,-0.2239,0.0748,0.0744,0.2957,1.2259,-9.7334,1.7433,7.1635,172.6253,0.0000,0.0000,0.0000,0.0000,0.0000,cooldown
289794,-0.1930,0.0852,0.0104,0.3011,1.1965,-9.7268,1.7450,7.1481,172.6398,0.0000,0.0000,0.0000,0.0000,0.0000,cooldown
289910,-0.1911,0.0941,0.0296,0.3442,1.2205,-9.7352,1.7714,7.1474,172.6341,0.0000,0.0000,0.0000,0.0000,0.0000,cooldown
290026,-0.1985,0.0761,-0.0356,0.2765,1.2361,-9.7250,1.7558,7.1568,172.6288,0.0000,0.0000,0.0000,0.0000,0.0000,cooldown
290142,-0.2304,0.0424,0.0371,0.3286,1.2468,-9.7226,1.7723,7.1714,172.6106,0.0000,0.0000,0.0000,0.0000,0.0000,cooldown
290258,-0.2042,0.0709,0.0055,0.2927,1.2331,-9.7304,1.7660,7.1762,172.6075,0.0000,0.0000,0.0000,0.0000,0.0000,cooldown
290374,-0.2196,0.0723,0.0252,0.3017,1.2145,-9.7298,1.7656,7.1697,172.6138,0.0000,0.0000,0.0000,0.0000,0.0000,cooldown
290490,-0.2199,0.0747,0.1266,0.3190,1.2414,-9.6921,1.7760,7.1823,172.5992,0.0000,0.0000,0.0000,0.0000,0.0000,cooldown
290606,-0.2195,0.0777,-0.0976,0.3562,1.2079,-9.7106,1.8068,7.1726,172.6010,0.0000,0.0000,0.0000,0.0000,0.0000,cooldown
290722,-0.1875,0.0646,0.0498,0.2843,1.2229,-9.7304,1.7922,7.1714,172.6058,0.0000,0.0000,0.0000,0.0000,0.0000,cooldown
290838,-0.2020,0.0656,0.0179,0.3448,1.2384,-9.7501,1.8139,7.1777,172.5943,0.0000,0.0000,0.0000,0.0000,0.0000,cooldown
290954,-0.2129,0.0645,0.0462,0.2801,1.2726,-9.7328,1.7960,7.2046,172.5726,0.0000,0.0000,0.0000,0.0000,0.0000,cooldown
291070,-0.2140,0.0841,0.0718,0.3077,1.2600,-9.7184,1.7962,7.2225,172.5552,0.0000,0.0000,0.0000,0.0000,0.0000,cooldown
291186,-0.2142,0.0571,-0.0348,0.2849,1.2414,-9.7406,1.7828,7.2263,172.5548,0.0000,0.0000,0.0000,0.0000,0.0000,cooldown
291302,-0.2262,0.0635,-0.0382,0.3256,1.2223,-9.7160,1.7949,7.2203,172.5577,0.0000,0.0000,0.0000,0.0000,0.0000,cooldown
291418,-0.1823,0.0583,-0.0211,0.2855,1.2366,-9.7753,1.7814,7.2189,172.5623,0.0000,0.0000,0.0000,0.0000,0.0000,cooldown
291534,-0.1880,0.0717,0.0682,0.3035,1.2025,-9.7382,1.7804,7.2007,172.5802,0.0000,0.0000,0.0000,0.0000,0.0000,cooldown
291650,-0.2285,0.0694,0.0168,0.3358,1.2235,-9.7394,1.7983,7.1962,172.5802,0.0000,0.0000,0.0000,0.0000,0.0000,cooldown
291766,-0.1866,0.0727,0.0063,0.3268,1.1888,-9.7495,1.8091,7.1713,172.6017,0.0000,0.0000,0.0000,0.0000,0.0000,cooldown
291882,-0.2035,0.0553,-0.0049,0.3244,1.0738,-9.7172,1.8182,7.0847,172.6833,0.0000,0.0000,0.0000,0.0000,0.0000,cooldown
291998,-0.1894,0.0806,0.0416,0.2903,1.2073,-9.7376,1.8059,7.0827,172.6884,0.0000,0.0000,0.0000,0.0000,0.0000,cooldown
292114,-0.2099,0.0495,0.0286,0.3238,1.2420,-9.7148,1.8146,7.1026,172.6669,0.0000,0.0000,0.0000,0.0000,0.0000,cooldown
292230,-0.2283,0.0765,0.0663,0.3184,1.2450,-9.7154,1.8194,7.1222,172.6468,0.0000,0.0000,0.0000,0.0000,0.0000,cooldown
292346,-0.2132,0.0626,-0.0026,0.3095,1.2331,-9.7471,1.8178,7.1306,172.6390,0.0000,0.0000,0.0000,0.0000,0.0000,cooldown
292462,-0.2091,0.0898,-0.0305,0.3053,1.2546,-9.7459,1.8140,7.1508,172.6204,0.0000,0.0000,0.0000,0.0000,0.0000,cooldown
292578,-0.2114,0.0972,-0.0094,0.2664,1.2151,-9.7178,1.7884,7.1482,172.6292,0.0000,0.0000,0.0000,0.0000,0.0000,cooldown
292694,-0.1704,0.0778,-0.0525,0.3250,1.2049,-9.7537,1.7990,7.1372,172.6373,0.0000,0.0000,0.0000,0.0000,0.0000,cooldown
292810,-0.2225,0.0522,0.0391,0.3143,1.2223,-9.7346,1.8026,7.1388,172.6349,0.0000,0.0000,0.0000,0.0000,0.0000,cooldown
292926,-0.2218,0.0458,-0.0311,0.3113,1.2355,-9.7052,1.8045,7.1499,172.6235,0.0000,0.0000,0.0000,0.0000,0.0000,cooldown
293042,-0.2039,0.0721,0.0484,0.2999,1.2522,-9.6771,1.8001,7.1718,172.6034,0.0000,0.0000,0.0000,0.0000,0.0000,cooldown
293158,-0.2300,0.0560,0.0007,0.2957,1.2025,-9.7190,1.7931,7.1596,172.6170,0.0000,0.0000,0.0000,0.0000,0.0000,cooldown
293274,-0.1775,0.0746,-0.0427,0.3077,1.1876,-9.7483,1.7932,7.1379,172.6380,0.0000,0.0000,0.0000,0.0000,0.0000,cooldown
293390,-0.1947,0.0646,-0.0127,0.3460,1.2151,-9.7771,1.8151,7.1321,172.6382,0.0000,0.0000,0.0000,0.0000,0.0000,cooldown
293506,-0.1851,0.0695,-0.0191,0.3148,1.2037,-9.7250,1.8176,7.1241,172.6454,0.0000,0.0000,0.0000,0.0000,0.0000,cooldown
293622,-0.2143,0.0810,0.0162,0.2945,1.2570,-9.7184,1.8080,7.1483,172.6243,0.0000,0.0000,0.0000,0.0000,0.0000,cooldown
293738,-0.2447,0.1033,-0.0072,0.2777,1.2396,-9.7154,1.7897,7.1603,172.6171,0.0000,0.0000,0.0000,0.0000,0.0000,cooldown
293854,-0.2217,0.0832,0.0172,0.3484,1.2151,-9.7196,1.8144,7.1564,172.6148,0.0000,0.0000,0.0000,0.0000,0.0000,cooldown
293970,-0.2249,0.0716,-0.0450,0.2879,1.2205,-9.7597,1.8006,7.1533,172.6213,0.0000,0.0000,0.0000,0.0000,0.0000,cooldown
294086,-0.2022,0.0579,0.0271,0.3071,1.1864,-9.7471,1.7996,7.1315,172.6426,0.0000,0.0000,0.0000,0.0000,0.0000,cooldown
294202,-0.1955,0.0678,0.0926,0.2975,1.1989,-9.7124,1.7938,7.1218,172.6535,0.0000,0.0000,0.0000,0.0000,0.0000,cooldown
294318,-0.2084,0.0937,-0.0457,0.2777,1.2714,-9.7316,1.7765,7.1537,172.6268,0.0000,0.0000,0.0000,0.0000,0.0000,cooldown
294434,-0.2143,0.0609,0.1367,0.3346,1.1995,-9.7495,1.7940,7.1393,172.6365,0.0000,0.0000,0.0000,0.0000,0.0000,cooldown
294550,-0.2240,0.0534,0.0305,0.2562,1.2325,-9.7436,1.7640,7.1460,172.6373,0.0000,0.0000,0.0000,0.0000,0.0000,cooldown
294666,-0.2034,0.0938,0.0200,0.2855,1.1942,-9.7412,1.7542,7.1300,172.6552,0.0000,0.0000,0.0000,0.0000,0.0000,cooldown
294782,-0.1868,0.0714,0.0067,0.3292,1.2229,-9.7046,1.7715,7.1348,172.6463,0.0000,0.0000,0.0000,0.0000,0.0000,cooldown
294898,-0.1948,0.0815,0.0075,0.3184,1.2037,-9.7334,1.7803,7.1259,172.6528,0.0000,0.0000,0.0000,0.0000,0.0000,cooldown
295014,-0.1900,0.0586,0.0346,0.2418,1.1882,-9.6831,1.7445,7.1128,172.6743,0.0000,0.0000,0.0000,0.0000,0.0000,cooldown
295130,-0.2168,0.0458,-0.0751,0.4334,1.2486,-9.7292,1.8231,7.1322,172.6362,0.0000,0.0000,0.0000,0.0000,0.0000,cooldown
295246,-0.2187,0.0778,0.0052,0.1568,1.2462,-9.7190,1.7325,7.1496,172.6413,0.0000,0.0000,0.0000,0.0000,0.0000,cooldown
295362,-0.1969,0.0810,-0.0330,0.4370,1.2265,-9.7148,1.8147,7.1535,172.6175,0.0000,0.0000,0.0000,0.0000,0.0000,cooldown
295478,-0.2213,0.0646,0.0029,0.3166,1.2582,-9.7340,1.8181,7.1743,172.5965,0.0000,0.0000,0.0000,0.0000,0.0000,cooldown
295594,-0.2012,0.0802,0.0134,0.3244,1.1834,-9.7400,1.8256,7.1492,172.6190,0.0000,0.0000,0.0000,0.0000,0.0000,cooldown
295710,-0.1963,0.0708,0.0346,0.3148,1.1912,-9.7058,1.8275,7.1337,172.6336,0.0000,0.0000,0.0000,0.0000,0.0000,cooldown
295826,-0.1765,0.0976,-0.0162,0.3160,1.2073,-9.7483,1.8290,7.1259,172.6407,0.0000,0.0000,0.0000,0.0000,0.0000,cooldown
295942,-0.1997,0.0513,0.0191,0.2981,1.2259,-9.7040,1.8207,7.1330,172.6360,0.0000,0.0000,0.0000,0.0000,0.0000,cooldown
296058,-0.1851,0.0713,0.0549,0.3220,1.1947,-9.7609,1.8262,7.1171,172.6500,0.0000,0.0000,0.0000,0.0000,0.0000,cooldown
296174,-0.1723,0.0853,0.0135,0.3190,1.2013,-9.7471,1.8297,7.1076,172.6583,0.0000,0.0000,0.0000,0.0000,0.0000,cooldown
296290,-0.1933,0.0598,0.0130,0.3017,1.2720,-9.7442,1.8225,7.1403,172.6284,0.0000,0.0000,0.0000,0.0000,0.0000,cooldown
296406,-0.1770,0.0680,0.0154,0.2825,1.2774,-9.7459,1.8049,7.1727,172.6014,0.0000,0.0000,0.0000,0.0000,0.0000,cooldown
296522,-0.2191,0.0845,-0.0064,0.3089,1.2217,-9.7160,1.8050,7.1717,172.6023,0.0000,0.0000,0.0000,0.0000,0.0000,cooldown
296638,-0.2099,0.0837,-0.0303,0.3478,1.2504,-9.7011,1.8281,7.1885,172.5803,0.0000,0.0000,0.0000,0.0000,0.0000,cooldown
296754,-0.1978,0.0826,0.0215,0.2801,1.1995,-9.6957,1.8096,7.1747,172.5983,0.0000,0.0000,0.0000,0.0000,0.0000,cooldown
296870,-0.1989,0.0507,-0.0109,0.3119,1.2091,-9.7268,1.8109,7.1655,172.6069,0.0000,0.0000,0.0000,0.0000,0.0000,cooldown
296986,-0.1922,0.0956,-0.0023,0.3376,1.2414,-9.7070,1.8274,7.1773,172.5914,0.0000,0.0000,0.0000,0.0000,0.0000,cooldown
297102,-0.2128,0.0417,0.0529,0.2951,1.2899,-9.7453,1.8165,7.2133,172.5591,0.0000,0.0000,0.0000,0.0000,0.0000,cooldown
297218,-0.2408,0.1039,0.0082,0.2885,1.2253,-9.7495,1.8030,7.2080,172.5676,0.0000,0.0000,0.0000,0.0000,0.0000,cooldown
297334,-0.2076,0.0879,0.0244,0.3131,1.1995,-9.7340,1.8056,7.1893,172.5851,0.0000,0.0000,0.0000,0.0000,0.0000,nothing
297450,-0.2172,0.0697,-0.0663,0.2885,1.2169,-9.7394,1.7934,7.1823,172.5949,0.0000,0.0000,0.0000,0.0000,0.0000,nothing
297566,-0.1883,0.0881,0.0226,0.3131,1.2037,-9.7555,1.7964,7.1671,172.6089,0.0000,0.0000,0.0000,0.0000,0.0000,nothing
297682,-0.1765,0.0897,-0.0108,0.2999,1.2247,-9.7340,1.7919,7.1671,172.6100,0.0000,0.0000,0.0000,0.0000,0.0000,nothing
297798,-0.2057,0.0449,-0.0065,0.2849,1.2073,-9.7028,1.7796,7.1594,172.6205,0.0000,0.0000,0.0000,0.0000,0.0000,nothing
297914,-0.2083,0.0765,-0.0244,0.3143,1.2456,-9.7627,1.7846,7.1703,172.6087,0.0000,0.0000,0.0000,0.0000,0.0000,nothing
298030,-0.2210,0.0803,-0.0391,0.3280,1.2217,-9.7214,1.7979,7.1691,172.6066,0.0000,0.0000,0.0000,0.0000,0.0000,nothing
298146,-0.2131,0.0654,-0.0288,0.3101,1.2624,-9.7513,1.7987,7.1895,172.5866,0.0000,0.0000,0.0000,0.0000,0.0000,nothing
298262,-0.2218,0.0628,0.0303,0.3681,1.0505,-9.6759,1.8352,7.0904,172.6735,0.0000,0.0000,0.0000,0.0000,0.0000,nothing
298378,-0.0774,-0.0124,-0.0687,0.2490,1.1098,-9.7819,1.7964,7.0282,172.7436,0.0000,0.0000,0.0000,0.0000,0.0000,nothing
298494,-0.1385,0.0526,-0.0585,0.3645,1.3013,-9.6891,1.8303,7.0897,172.6755,0.0000,0.0000,0.0000,0.0000,0.0000,nothing
298610,-0.2271,0.0885,-0.0281,0.3250,1.3402,-9.6927,1.8375,7.1674,172.5984,0.0000,0.0000,0.0000,0.0000,0.0000,nothing
298726,-0.2814,0.1100,0.0094,0.3286,1.2295,-9.7005,1.8462,7.1725,172.5912,0.0000,0.0000,0.0000,0.0000,0.0000,nothing
298842,-0.2316,0.0579,0.0540,0.2550,1.2181,-9.7370,1.8104,7.1681,172.6045,0.0000,0.0000,0.0000,0.0000,0.0000,nothing
298958,-0.1962,0.0476,0.0215,0.1616,1.2642,-9.7597,1.7231,7.1894,172.6049,0.0000,0.0000,0.0000,0.0000,0.0000,nothing
299074,-0.1648,0.0954,0.0226,0.2771,1.2169,-9.6843,1.7135,7.1864,172.6101,0.0000,0.0000,0.0000,0.0000,0.0000,nothing
299190,-0.1610,0.1070,0.0049,0.3089,1.2295,-9.7376,1.7224,7.1870,172.6074,0.0000,0.0000,0.0000,0.0000,0.0000,nothing
299306,-0.1996,0.0934,0.0330,0.3514,1.2097,-9.7274,1.7555,7.1768,172.6095,0.0000,0.0000,0.0000,0.0000,0.0000,nothing
299422,-0.2030,0.0890,-0.0185,0.2556,1.2139,-9.7358,1.7291,7.1696,172.6227,0.0000,0.0000,0.0000,0.0000,0.0000,nothing
299538,-0.1988,0.0665,0.0055,0.3400,1.2169,-9.7519,1.7544,7.1635,172.6226,0.0000,0.0000,0.0000,0.0000,0.0000,nothing
299654,-0.1812,0.0597,0.0123,0.3256,1.2163,-9.7334,1.7691,7.1590,172.6234,0.0000,0.0000,0.0000,0.0000,0.0000,nothing
299770,-0.1902,0.0817,-0.0005,0.3430,1.2390,-9.7262,1.7925,7.1687,172.6083,0.0000,0.0000,0.0000,0.0000,0.0000,nothing
299886,-0.2037,0.0852,0.0120,0.3178,1.2648,-9.7286,1.7989,7.1921,172.5840,0.0000,0.0000,0.0000,0.0000,0.0000,nothing
300002,-0.1723,0.1234,0.0382,0.3633,1.2474,-9.6969,1.8317,7.2054,172.5630,0.0000,0.0000,0.0000,0.0000,0.0000,หนึ่ง
300118,-0.2308,0.0534,0.0007,0.3238,1.2211,-9.7675,1.8370,7.1971,172.5698,0.0000,0.0000,0.0000,0.0000,0.0000,หนึ่ง
300234,-0.1761,0.0435,-0.0239,0.3029,1.1217,-9.7723,1.8296,7.1317,172.6350,0.0000,0.0000,0.0000,0.0000,0.0000,หนึ่ง
300350,-0.1785,0.0589,-0.0085,0.2837,1.2205,-9.7442,1.8122,7.1321,172.6389,0.0000,0.0000,0.0000,0.0000,0.0000,หนึ่ง
300466,-0.1566,0.0709,0.0245,0.2999,1.2492,-9.7190,1.8062,7.1510,172.6221,0.0000,0.0000,0.0000,0.0000,0.0000,หนึ่ง
300582,-0.1978,0.0519,0.0025,0.3292,1.2708,-9.7064,1.8182,7.1813,172.5898,0.0000,0.0000,0.0000,0.0000,0.0000,หนึ่ง
300698,-0.1913,0.0675,0.0164,0.2933,1.2462,-9.7465,1.8073,7.1915,172.5825,0.0000,0.0000,0.0000,0.0000,0.0000,หนึ่ง
300814,-0.2199,0.0733,0.0594,0.3286,1.2241,-9.7124,1.8189,7.1903,172.5809,0.0000,0.0000,0.0000,0.0000,0.0000,หนึ่ง
300930,-0.2104,0.0409,-0.0481,0.2783,1.2199,-9.7196,1.7997,7.1863,172.5894,0.0000,0.0000,0.0000,0.0000,0.0000,หนึ่ง
301046,-0.2398,0.0709,0.0233,0.3119,1.2343,-9.7453,1.8016,7.1892,172.5862,0.0000,0.0000,0.0000,0.0000,0.0000,หนึ่ง
301162,-0.2267,0.0564,0.0019,0.3065,1.2211,-9.7418,1.8002,7.1843,172.5912,0.0000,0.0000,0.0000,0.0000,0.0000,หนึ่ง
301278,-0.1875,0.0491,0.0014,0.2855,1.2103,-9.7447,1.7868,7.1736,172.6050,0.0000,0.0000,0.0000,0.0000,0.0000,หนึ่ง
301394,-0.2015,0.0986,0.0601,0.3143,1.1930,-9.7226,1.7918,7.1554,172.6214,0.0000,0.0000,0.0000,0.0000,0.0000,หนึ่ง
301510,-0.1842,0.0811,-0.0339,0.2981,1.2474,-9.7136,1.7870,7.1713,172.6071,0.0000,0.0000,0.0000,0.0000,0.0000,หนึ่ง
301626,-0.2149,0.0852,0.0495,0.3059,1.2582,-9.7100,1.7872,7.1921,172.5869,0.0000,0.0000,0.0000,0.0000,0.0000,หนึ่ง
301742,-0.2349,0.0703,-0.0354,0.2825,1.2414,-9.7286,1.7735,7.1998,172.5828,0.0000,0.0000,0.0000,0.0000,0.0000,หนึ่ง
301858,-0.2401,0.0676,0.0553,0.2783,1.2325,-9.7310,1.7587,7.2013,172.5848,0.0000,0.0000,0.0000,0.0000,0.0000,หนึ่ง
301974,-0.2211,0.0885,-0.0361,0.2873,1.2468,-9.7639,1.7500,7.2086,172.5798,0.0000,0.0000,0.0000,0.0000,0.0000,หนึ่ง
302090,-0.1825,0.0875,-0.0003,0.2783,1.1989,-9.6939,1.7383,7.1926,172.5982,0.0000,0.0000,0.0000,0.0000,0.0000,หนึ่ง
302206,-0.1750,0.0498,0.0164,0.3268,1.2480,-9.7442,1.7550,7.2028,172.5842,0.0000,0.0000,0.0000,0.0000,0.0000,หนึ่ง
302322,-0.2023,0.0860,-0.0029,0.2789,1.2289,-9.6957,1.7430,7.2046,172.5854,0.0000,0.0000,0.0000,0.0000,0.0000,หนึ่ง
302438,-0.2273,0.0743,0.0376,0.2945,1.2157,-9.7453,1.7405,7.1949,172.5955,0.0000,0.0000,0.0000,0.0000,0.0000,หนึ่ง
302554,-0.2113,0.0507,0.0309,0.2628,1.2001,-9.6939,1.7206,7.1809,172.6137,0.0000,0.0000,0.0000,0.0000,0.0000,หนึ่ง
302670,-0.2106,0.0904,-0.0481,0.3178,1.2217,-9.7268,1.7342,7.1783,172.6130,0.0000,0.0000,0.0000,0.0000,0.0000,หนึ่ง
302786,-0.2038,0.0971,0.0928,0.2909,1.2259,-9.7226,1.7309,7.1788,172.6133,0.0000,0.0000,0.0000,0.0000,0.0000,หนึ่ง
302902,-0.2166,0.0727,0.0147,0.3154,1.2037,-9.7352,1.7420,7.1654,172.6237,0.0000,0.0000,0.0000,0.0000,0.0000,หนึ่ง
303018,-0.2052,0.0678,-0.0187,0.2801,1.2271,-9.7262,1.7314,7.1676,172.6241,0.0000,0.0000,0.0000,0.0000,0.0000,หนึ่ง
303134,-0.1903,0.0724,0.0256,0.2909,1.2151,-9.7513,1.7279,7.1608,172.6315,0.0000,0.0000,0.0000,0.0000,0.0000,หนึ่ง
303250,-0.1823,0.0664,-0.0260,0.3256,1.2079,-9.7358,1.7452,7.1516,172.6364,0.0000,0.0000,0.0000,0.0000,0.0000,หนึ่ง
303366,-0.1926,0.0626,0.0476,0.2963,1.2516,-9.6933,1.7443,7.1718,172.6170,0.0000,0.0000,0.0000,0.0000,0.0000,หนึ่ง
303482,-0.2101,0.0683,-0.0063,0.3298,1.2642,-9.7430,1.7622,7.1936,172.5915,0.0000,0.0000,0.0000,0.0000,0.0000,หนึ่ง
303598,-0.2369,0.0639,0.0409,0.3424,1.2349,-9.7513,1.7855,7.1955,172.5840,0.0000,0.0000,0.0000,0.0000,0.0000,หนึ่ง
303714,-0.2131,0.0687,-0.0075,0.3011,1.2857,-9.7124,1.7830,7.2296,172.5515,0.0000,0.0000,0.0000,0.0000,0.0000,หนึ่ง
303830,-0.2110,0.0732,-0.0025,0.2969,1.2546,-9.7555,1.7776,7.2392,172.5435,0.0000,0.0000,0.0000,0.0000,0.0000,หนึ่ง
303946,-0.2316,0.0780,0.0496,0.3382,1.2187,-9.7340,1.7973,7.2285,172.5491,0.0000,0.0000,0.0000,0.0000,0.0000,หนึ่ง
304062,-0.2144,0.0436,-0.0115,0.3154,1.2049,-9.6963,1.8024,7.2137,172.5622,0.0000,0.0000,0.0000,0.0000,0.0000,หนึ่ง
304178,-0.1834,0.0680,0.0019,0.3400,1.2462,-9.7220,1.8209,7.2223,172.5493,0.0000,0.0000,0.0000,0.0000,0.0000,หนึ่ง
304294,-0.2240,0.0545,-0.0259,0.3131,1.1995,-9.7034,1.8222,7.2045,172.5663,0.0000,0.0000,0.0000,0.0000,0.0000,หนึ่ง
304410,-0.2173,0.0638,0.0519,0.2927,1.2450,-9.7286,1.8109,7.2130,172.5608,0.0000,0.0000,0.0000,0.0000,0.0000,หนึ่ง
304526,-0.1952,0.0815,0.0429,0.2819,1.2301,-9.7406,1.7942,7.2112,172.5667,0.0000,0.0000,0.0000,0.0000,0.0000,หนึ่ง
304642,-0.1996,0.0832,-0.0528,0.2700,1.2085,-9.7256,1.7726,7.1981,172.5846,0.0000,0.0000,0.0000,0.0000,0.0000,หนึ่ง
304758,-0.2024,0.0656,-0.0209,0.3226,1.2151,-9.7130,1.7841,7.1910,172.5887,0.0000,0.0000,0.0000,0.0000,0.0000,หนึ่ง
304874,-0.1866,0.0611,0.0408,0.2993,1.1989,-9.7328,1.7805,7.1738,172.6063,0.0000,0.0000,0.0000,0.0000,0.0000,หนึ่ง
304990,-0.1873,0.0405,-0.0558,0.3208,1.2271,-9.7412,1.7896,7.1740,172.6039,0.0000,0.0000,0.0000,0.0000,0.0000,หนึ่ง
305106,-0.2161,0.0769,0.0380,0.3137,1.3151,-9.6945,1.7943,7.2286,172.5497,0.0000,0.0000,0.0000,0.0000,0.0000,หนึ่ง
305222,-0.4711,0.0155,0.0015,0.0287,1.1666,-9.7244,1.6319,7.1902,172.6251,0.0000,0.0000,0.0000,0.0000,0.0000,nothing
305338,-0.1810,0.0274,0.0449,0.3562,1.0954,-9.7507,1.6766,7.1116,172.6914,0.0000,0.0000,0.0000,0.0000,0.0000,nothing
305454,-0.1238,0.0297,-0.0425,0.2245,1.1600,-9.7376,1.6401,7.0796,172.7310,0.0000,0.0000,0.0000,0.0000,0.0000,nothing
305570,-0.2016,0.0650,0.0731,0.3496,1.2768,-9.7011,1.6806,7.1209,172.6814,0.0000,0.0000,0.0000,0.0000,0.0000,nothing
305686,-0.2342,0.0653,0.0026,0.3322,1.2319,-9.7052,1.7070,7.1318,172.6647,0.0000,0.0000,0.0000,0.0000,0.0000,nothing
305802,-0.2140,0.0822,0.1012,0.2598,1.2744,-9.7088,1.6883,7.1661,172.6357,0.0000,0.0000,0.0000,0.0000,0.0000,nothing
305918,-0.2440,0.0723,-0.0104,0.3579,1.1840,-9.6999,1.7292,7.1450,172.6466,0.0000,0.0000,0.0000,0.0000,0.0000,nothing
306034,-0.2064,0.0725,-0.0504,0.3143,1.2031,-9.7322,1.7398,7.1348,172.6539,0.0000,0.0000,0.0000,0.0000,0.0000,nothing
306150,-0.2356,0.0563,0.0037,0.3071,1.2283,-9.7238,1.7453,7.1409,172.6467,0.0000,0.0000,0.0000,0.0000,0.0000,nothing
306266,-0.2266,0.0624,0.0945,0.2783,1.2492,-9.7011,1.7338,7.1603,172.6307,0.0000,0.0000,0.0000,0.0000,0.0000,nothing
306382,-0.2027,0.0875,-0.1089,0.3244,1.2289,-9.6909,1.7506,7.1665,172.6206,0.0000,0.0000,0.0000,0.0000,0.0000,nothing
306498,-0.1836,0.0785,0.0406,0.4495,1.2738,-9.7501,1.8376,7.1936,172.5730,0.0000,0.0000,0.0000,0.0000,0.0000,nothing
306614,-0.2173,0.0731,0.0040,0.3143,1.2301,-9.7220,1.8375,7.1949,172.5717,0.0000,0.0000,0.0000,0.0000,0.0000,nothing
306730,-0.1759,0.0654,0.0136,0.2909,1.2438,-9.7250,1.8237,7.2040,172.5664,0.0000,0.0000,0.0000,0.0000,0.0000,nothing
306846,-0.2049,0.0607,0.0189,0.2993,1.2031,-9.7531,1.8158,7.1865,172.5853,0.0000,0.0000,0.0000,0.0000,0.0000,nothing
306962,-0.2247,0.0679,-0.0245,0.2598,1.3582,-9.7034,1.7861,7.2643,172.5171,0.0000,0.0000,0.0000,0.0000,0.0000,nothing
307078,-0.2119,0.1082,0.0773,0.3412,1.2486,-9.7196,1.8069,7.2695,172.5070,0.0000,0.0000,0.0000,0.0000,0.0000,nothing
307194,-0.2327,0.0701,0.0285,0.3376,1.2528,-9.6963,1.8239,7.2783,172.4943,0.0000,0.0000,0.0000,0.0000,0.0000,nothing
307310,-0.1952,0.0322,0.0414,0.2771,1.2426,-9.7459,1.8031,7.2768,172.5008,0.0000,0.0000,0.0000,0.0000,0.0000,nothing
307426,-0.2301,0.0720,0.0304,0.2574,1.2301,-9.7262,1.7732,7.2696,172.5150,0.0000,0.0000,0.0000,0.0000,0.0000,nothing
307542,-0.1970,0.0713,0.0041,0.2891,1.1989,-9.7322,1.7647,7.2447,172.5413,0.0000,0.0000,0.0000,0.0000,0.0000,nothing
307658,-0.2547,0.0962,-0.0185,0.3202,1.2480,-9.7202,1.7754,7.2514,172.5321,0.0000,0.0000,0.0000,0.0000,0.0000,nothing
307774,-0.2037,0.0570,0.0203,0.3280,1.2714,-9.7220,1.7895,7.2709,172.5098,0.0000,0.0000,0.0000,0.0000,0.0000,nothing
307890,-0.2249,0.0796,0.0243,0.2963,1.2025,-9.7298,1.7836,7.2481,172.5334,0.0000,0.0000,0.0000,0.0000,0.0000,nothing
308006,-0.2082,0.0806,0.0049,0.3035,1.2103,-9.7304,1.7825,7.2320,172.5493,0.0000,0.0000,0.0000,0.0000,0.0000,nothing
308122,-0.2184,0.0817,0.0964,0.2604,1.1804,-9.7400,1.7563,7.1995,172.5872,0.0000,0.0000,0.0000,0.0000,0.0000,nothing
308238,-0.1779,0.0548,-0.0458,0.3220,1.1804,-9.7442,1.7686,7.1698,172.6130,0.0000,0.0000,0.0000,0.0000,0.0000,nothing
308354,-0.1778,0.0534,-0.0090,0.3514,1.1864,-9.7382,1.7969,7.1470,172.6283,0.0000,0.0000,0.0000,0.0000,0.0000,nothing
308470,-0.1828,0.0613,0.0031,0.2975,1.2558,-9.7436,1.7906,7.1664,172.6110,0.0000,0.0000,0.0000,0.0000,0.0000,nothing
308586,-0.2311,0.0770,0.0667,0.2855,1.2265,-9.7292,1.7783,7.1679,172.6125,0.0000,0.0000,0.0000,0.0000,0.0000,nothing
308702,-0.1881,0.0665,0.0025,0.3238,1.2426,-9.7358,1.7895,7.1781,172.5999,0.0000,0.0000,0.0000,0.0000,0.0000,nothing
308818,-0.2128,0.0420,0.0541,0.2957,1.2468,-9.7543,1.7828,7.1884,172.5915,0.0000,0.0000,0.0000,0.0000,0.0000,nothing
308934,-0.2059,0.0739,0.0585,0.3292,1.2091,-9.7394,1.7966,7.1769,172.5994,0.0000,0.0000,0.0000,0.0000,0.0000,nothing
309050,-0.1861,0.0765,-0.0695,0.2562,1.2271,-9.7579,1.7661,7.1757,172.6079,0.0000,0.0000,0.0000,0.0000,0.0000,nothing
309166,-0.1737,0.0507,-0.0008,0.3148,1.2708,-9.7172,1.7735,7.2028,172.5798,0.0000,0.0000,0.0000,0.0000,0.0000,nothing
309282,-0.2192,0.0582,0.0570,0.3107,1.2331,-9.7118,1.7779,7.2057,172.5759,0.0000,0.0000,0.0000,0.0000,0.0000,nothing
309398,-0.2241,0.0620,0.0613,0.3184,1.2283,-9.7070,1.7865,7.2059,172.5737,0.0000,0.0000,0.0000,0.0000,0.0000,nothing
309514,-0.2020,0.0519,-0.0011,0.2765,1.2211,-9.7023,1.7699,7.2024,172.5811,0.0000,0.0000,0.0000,0.0000,0.0000,nothing
309630,-0.2087,0.0669,0.0683,0.3232,1.2175,-9.7220,1.7818,7.1955,172.5849,0.0000,0.0000,0.0000,0.0000,0.0000,nothing
309746,-0.2187,0.0750,-0.0243,0.3280,1.2241,-9.7190,1.7954,7.1934,172.5836,0.0000,0.0000,0.0000,0.0000,0.0000,nothing
309862,-0.2089,0.0939,0.0451,0.3095,1.2277,-9.7495,1.7963,7.1914,172.5853,0.0000,0.0000,0.0000,0.0000,0.0000,nothing
309978,-0.2060,0.0828,0.0335,0.2981,1.2217,-9.7453,1.7905,7.1865,172.5915,0.0000,0.0000,0.0000,0.0000,0.0000,nothing
310094,-0.1977,0.0863,-0.0350,0.2831,1.2390,-9.7238,1.7769,7.1937,172.5878,0.0000,0.0000,0.0000,0.0000,0.0000,nothing
310210,-0.2326,0.0802,0.0169,0.3358,1.2049,-9.7142,1.7956,7.1810,172.5956,0.0000,0.0000,0.0000,0.0000,0.0000,nothing
310326,-0.1824,0.0480,-0.0928,0.2777,1.2127,-9.7573,1.7778,7.1711,172.6096,0.0000,0.0000,0.0000,0.0000,0.0000,nothing
310442,-0.2162,0.0769,0.0578,0.3364,1.2474,-9.7651,1.7958,7.1816,172.5950,0.0000,0.0000,0.0000,0.0000,0.0000,nothing
310558,-0.1860,0.0815,-0.0686,0.3011,1.2684,-9.7334,1.7919,7.2055,172.5727,0.0000,0.0000,0.0000,0.0000,0.0000,nothing
310674,-0.2233,0.0716,0.0315,0.2712,1.2678,-9.7453,1.7708,7.2259,172.5580,0.0000,0.0000,0.0000,0.0000,0.0000,nothing
310790,-0.2395,0.0500,0.0675,0.3280,1.0756,-9.7436,1.7853,7.1330,172.6447,0.0000,0.0000,0.0000,0.0000,0.0000,nothing
310906,-0.2082,0.0804,0.0817,0.3035,1.2073,-9.7076,1.7845,7.1283,172.6495,0.0000,0.0000,0.0000,0.0000,0.0000,nothing
311022,-0.2283,0.0600,-0.0466,0.2843,1.2253,-9.7298,1.7721,7.1329,172.6480,0.0000,0.0000,0.0000,0.0000,0.0000,nothing
311138,-0.2056,0.0720,0.0425,0.2448,1.2462,-9.7076,1.7383,7.1509,172.6387,0.0000,0.0000,0.0000,0.0000,0.0000,nothing
311254,-0.2318,0.0657,0.0255,0.3154,1.2223,-9.6891,1.7494,7.1544,172.6326,0.0000,0.0000,0.0000,0.0000,0.0000,nothing
311370,-0.2124,0.0954,0.0324,0.3538,1.2504,-9.7220,1.7812,7.1714,172.6084,0.0000,0.0000,0.0000,0.0000,0.0000,nothing
311486,-0.2313,0.0641,0.0383,0.3232,1.2809,-9.7621,1.7911,7.2015,172.5768,0.0000,0.0000,0.0000,0.0000,0.0000,nothing
311602,-0.2209,0.0571,0.0293,0.2448,1.2492,-9.7447,1.7547,7.2117,172.5757,0.0000,0.0000,0.0000,0.0000,0.0000,nothing
311718,-0.2044,0.0817,0.0030,0.3196,1.1989,-9.7477,1.7656,7.1913,172.5929,0.0000,0.0000,0.0000,0.0000,0.0000,nothing
311834,-0.2014,0.0960,-0.0030,0.3250,1.2372,-9.7310,1.7789,7.1964,172.5847,0.0000,0.0000,0.0000,0.0000,0.0000,nothing
311950,-0.2412,0.0977,-0.0950,0.3160,1.2223,-9.7489,1.7852,7.1910,172.5884,0.0000,0.0000,0.0000,0.0000,0.0000,nothing
312066,-0.2428,0.0673,0.0284,0.2777,1.2139,-9.7100,1.7693,7.1842,172.5989,0.0000,0.0000,0.0000,0.0000,0.0000,nothing
312182,-0.1894,0.0928,0.0592,0.2945,1.2402,-9.6933,1.7650,7.1946,172.5899,0.0000,0.0000,0.0000,0.0000,0.0000,nothing
312298,-0.2102,0.0825,0.0042,0.2891,1.2277,-9.7304,1.7574,7.1939,172.5924,0.0000,0.0000,0.0000,0.0000,0.0000,nothing
312414,-0.2311,0.0275,0.0113,0.3244,1.1971,-9.7124,1.7715,7.1768,172.6055,0.0000,0.0000,0.0000,0.0000,0.0000,nothing
312530,-0.1847,0.0619,0.0562,0.3017,1.2199,-9.6783,1.7715,7.1772,172.6052,0.0000,0.0000,0.0000,0.0000,0.0000,nothing
312646,-0.1890,0.0912,-0.0495,0.2969,1.2163,-9.7220,1.7679,7.1722,172.6109,0.0000,0.0000,0.0000,0.0000,0.0000,nothing
312762,-0.2196,0.0723,0.0530,0.2993,1.2097,-9.7124,1.7662,7.1647,172.6186,0.0000,0.0000,0.0000,0.0000,0.0000,nothing
312878,-0.2079,0.0840,-0.0331,0.2981,1.2534,-9.7567,1.7632,7.1800,172.6045,0.0000,0.0000,0.0000,0.0000,0.0000,nothing
312994,-0.2283,0.0796,0.0225,0.3484,1.2420,-9.7286,1.7903,7.1891,172.5891,0.0000,0.0000,0.0000,0.0000,0.0000,nothing
313110,-0.1670,0.0907,-0.0435,0.2843,1.2456,-9.7364,1.7772,7.1989,172.5827,0.0000,0.0000,0.0000,0.0000,0.0000,nothing
313226,-0.2067,0.1031,-0.0057,0.3238,1.2223,-9.7286,1.7886,7.1948,172.5840,0.0000,0.0000,0.0000,0.0000,0.0000,nothing
313342,-0.2189,0.0822,0.0068,0.2945,1.2145,-9.7226,1.7819,7.1870,172.5931,0.0000,0.0000,0.0000,0.0000,0.0000,nothing
313458,-0.2187,0.1183,0.0040,0.2957,1.2588,-9.7310,1.7763,7.2050,172.5770,0.0000,0.0000,0.0000,0.0000,0.0000,nothing
313574,-0.2113,0.0574,-0.0049,0.2969,1.1918,-9.6993,1.7727,7.1848,172.5975,0.0000,0.0000,0.0000,0.0000,0.0000,nothing
313690,-0.2319,0.0449,0.0065,0.2975,1.2091,-9.7136,1.7695,7.1755,172.6073,0.0000,0.0000,0.0000,0.0000,0.0000,nothing
313806,-0.1854,0.0864,-0.0090,0.3520,1.2115,-9.7412,1.7980,7.1664,172.6091,0.0000,0.0000,0.0000,0.0000,0.0000,nothing
313922,-0.1861,0.0623,0.0031,0.2718,1.2139,-9.7196,1.7771,7.1614,172.6191,0.0000,0.0000,0.0000,0.0000,0.0000,nothing
314038,-0.2124,0.0680,0.0121,0.4507,1.2187,-9.7088,1.8631,7.1601,172.5991,0.0000,0.0000,0.0000,0.0000,0.0000,nothing
314154,-0.2165,0.0645,0.0001,0.3083,1.2223,-9.7232,1.8569,7.1602,172.6005,0.0000,0.0000,0.0000,0.0000,0.0000,nothing
314270,-0.2104,0.0676,0.0195,0.3089,1.2283,-9.7459,1.8513,7.1621,172.6000,0.0000,0.0000,0.0000,0.0000,0.0000,nothing
314386,-0.2268,0.0519,0.0082,0.2825,1.3689,-9.7382,1.8307,7.2460,172.5239,0.0000,0.0000,0.0000,0.0000,0.0000,nothing
314502,-0.2215,0.0729,-0.0040,0.3418,1.2384,-9.7352,1.8471,7.2460,172.5199,0.0000,0.0000,0.0000,0.0000,0.0000,nothing
314618,-0.2270,0.0832,-0.0344,0.2765,1.2043,-9.7400,1.8238,7.2259,172.5451,0.0000,0.0000,0.0000,0.0000,0.0000,nothing
314734,-0.1967,0.0473,-0.0154,0.3166,1.2714,-9.7052,1.8267,7.2492,172.5218,0.0000,0.0000,0.0000,0.0000,0.0000,nothing
314850,-0.1928,0.0935,0.0560,0.1981,1.2768,-9.6891,1.7604,7.2748,172.5130,0.0000,0.0000,0.0000,0.0000,0.0000,nothing
314966,-0.2016,0.0612,0.0209,0.3226,1.2223,-9.7465,1.7725,7.2617,172.5228,0.0000,0.0000,0.0000,0.0000,0.0000,nothing
315082,-0.2125,0.0466,0.0113,0.3394,1.2289,-9.7693,1.7927,7.2520,172.5274,0.0000,0.0000,0.0000,0.0000,0.0000,nothing
315198,-0.2378,0.0912,0.0195,0.3573,1.2366,-9.7705,1.8214,7.2477,172.5246,0.0000,0.0000,0.0000,0.0000,0.0000,nothing
315314,-0.2054,0.0735,0.1028,0.2813,1.2540,-9.7005,1.8040,7.2592,172.5177,0.0000,0.0000,0.0000,0.0000,0.0000,nothing
315430,-0.1830,0.0669,0.0209,0.2915,1.2594,-9.6987,1.7944,7.2728,172.5068,0.0000,0.0000,0.0000,0.0000,0.0000,nothing
315546,-0.1947,0.1137,0.0187,0.2670,1.2432,-9.7196,1.7710,7.2741,172.5111,0.0000,0.0000,0.0000,0.0000,0.0000,nothing
315662,-0.2164,0.0815,-0.0056,0.2987,1.2217,-9.7699,1.7677,7.2591,172.5265,0.0000,0.0000,0.0000,0.0000,0.0000,nothing
315778,-0.2147,0.0514,-0.0010,0.3352,1.2127,-9.7376,1.7866,7.2427,172.5379,0.0000,0.0000,0.0000,0.0000,0.0000,nothing
315894,-0.1985,0.0890,-0.0451,0.3274,1.2049,-9.7268,1.7992,7.2242,172.5528,0.0000,0.0000,0.0000,0.0000,0.0000,nothing
316010,-0.1723,0.0965,-0.0034,0.2724,1.1846,-9.7190,1.7787,7.1964,172.5847,0.0000,0.0000,0.0000,0.0000,0.0000,nothing
316126,-0.2408,0.0699,0.0420,0.3089,1.1936,-9.7034,1.7818,7.1777,172.6022,0.0000,0.0000,0.0000,0.0000,0.0000,nothing
316242,-0.2439,0.0184,0.0747,0.4022,1.2504,-9.7813,1.8375,7.1879,172.5785,0.0000,0.0000,0.0000,0.0000,0.0000,nothing
316358,-0.2119,0.0768,0.0232,0.2921,1.2133,-9.7214,1.8245,7.1803,172.5892,0.0000,0.0000,0.0000,0.0000,0.0000,nothing
316474,-0.2076,0.0611,0.0213,0.3119,1.2157,-9.7046,1.8247,7.1759,172.5934,0.0000,0.0000,0.0000,0.0000,0.0000,nothing
316590,-0.2074,0.1036,-0.0315,0.2646,1.2139,-9.7424,1.7966,7.1683,172.6077,0.0000,0.0000,0.0000,0.0000,0.0000,nothing
316706,-0.2168,0.0759,0.0134,0.2945,1.2073,-9.7172,1.7892,7.1594,172.6181,0.0000,0.0000,0.0000,0.0000,0.0000,nothing
316822,-0.1948,0.0937,0.0344,0.3131,1.2624,-9.6819,1.7939,7.1859,172.5913,0.0000,0.0000,0.0000,0.0000,0.0000,nothing
316938,-0.1775,0.0733,0.0270,0.3125,1.2253,-9.7202,1.7972,7.1853,172.5910,0.0000,0.0000,0.0000,0.0000,0.0000,nothing
317054,-0.2174,0.0781,0.0324,0.2777,1.2067,-9.6915,1.7804,7.1763,172.6039,0.0000,0.0000,0.0000,0.0000,0.0000,nothing
317170,-0.1959,0.0668,-0.0927,0.3388,1.1882,-9.7717,1.7996,7.1514,172.6233,0.0000,0.0000,0.0000,0.0000,0.0000,nothing
317286,-0.1992,0.0886,-0.0112,0.3041,1.2067,-9.7358,1.7971,7.1425,172.6326,0.0000,0.0000,0.0000,0.0000,0.0000,nothing
317402,-0.2015,0.0776,0.0057,0.3071,1.2295,-9.7424,1.7965,7.1472,172.6282,0.0000,0.0000,0.0000,0.0000,0.0000,nothing
317518,-0.2080,0.0994,0.0506,0.3286,1.2402,-9.7370,1.8086,7.1580,172.6147,0.0000,0.0000,0.0000,0.0000,0.0000,nothing
317634,-0.2135,0.0796,0.0105,0.2855,1.1882,-9.6987,1.7952,7.1404,172.6351,0.0000,0.0000,0.0000,0.0000,0.0000,nothing
317750,-0.2194,0.0521,-0.0165,0.2885,1.2480,-9.7795,1.7832,7.1533,172.6255,0.0000,0.0000,0.0000,0.0000,0.0000,nothing
317866,-0.2222,0.0654,0.0622,0.3274,1.2283,-9.7525,1.7957,7.1554,172.6204,0.0000,0.0000,0.0000,0.0000,0.0000,nothing
317982,-0.2090,0.0466,-0.0031,0.2825,1.2714,-9.7298,1.7811,7.1840,172.5962,0.0000,0.0000,0.0000,0.0000,0.0000,nothing
318098,-0.2571,0.1238,-0.0646,0.2807,1.2378,-9.7232,1.7670,7.1909,172.5930,0.0000,0.0000,0.0000,0.0000,0.0000,nothing
318214,-0.2113,0.0859,0.0000,0.2765,1.2235,-9.7525,1.7515,7.1865,172.6009,0.0000,0.0000,0.0000,0.0000,0.0000,nothing
318330,-0.2029,0.0919,0.0138,0.3005,1.1930,-9.7447,1.7516,7.1655,172.6213,0.0000,0.0000,0.0000,0.0000,0.0000,nothing
318446,-0.1911,0.0521,-0.0308,0.2885,1.1971,-9.7178,1.7453,7.1509,172.6370,0.0000,0.0000,0.0000,0.0000,0.0000,nothing
318562,-0.1584,0.0898,-0.0124,0.3412,1.2648,-9.6897,1.7706,7.1790,172.6037,0.0000,0.0000,0.0000,0.0000,0.0000,nothing
318678,-0.2074,0.0654,0.0143,0.2747,1.2684,-9.7340,1.7539,7.2032,172.5841,0.0000,0.0000,0.0000,0.0000,0.0000,nothing
318794,-0.2104,0.0784,0.0994,0.2975,1.2708,-9.7340,1.7521,7.2264,172.5621,0.0000,0.0000,0.0000,0.0000,0.0000,nothing
318910,-0.1842,0.0922,0.0221,0.3825,1.2097,-9.7070,1.8007,7.2136,172.5627,0.0000,0.0000,0.0000,0.0000,0.0000,nothing
319026,-0.2285,0.0731,-0.0480,0.2975,1.2564,-9.7621,1.7937,7.2253,172.5531,0.0000,0.0000,0.0000,0.0000,0.0000,nothing
319142,-0.2323,0.0675,0.0586,0.2891,1.2193,-9.7196,1.7834,7.2175,172.5631,0.0000,0.0000,0.0000,0.0000,0.0000,nothing
319258,-0.2420,0.0510,-0.0082,0.3418,1.2025,-9.7118,1.8050,7.2012,172.5737,0.0000,0.0000,0.0000,0.0000,0.0000,nothing
319374,-0.2319,0.0847,0.0514,0.2598,1.2444,-9.7298,1.7762,7.2097,172.5725,0.0000,0.0000,0.0000,0.0000,0.0000,nothing
319490,-0.2427,0.0687,0.0173,0.3400,1.2558,-9.7328,1.7971,7.2235,172.5540,0.0000,0.0000,0.0000,0.0000,0.0000,nothing
319606,-0.2451,0.0663,0.0000,0.3047,1.2498,-9.7280,1.7953,7.2329,172.5453,0.0000,0.0000,0.0000,0.0000,0.0000,nothing
319722,-0.2143,0.0682,-0.0582,0.2807,1.2355,-9.7579,1.7792,7.2309,172.5511,0.0000,0.0000,0.0000,0.0000,0.0000,nothing
319838,-0.2136,0.0875,0.0251,0.2735,1.2241,-9.7268,1.7611,7.2248,172.5614,0.0000,0.0000,0.0000,0.0000,0.0000,nothing
319954,-0.1902,0.0608,0.0018,0.2628,1.2133,-9.6801,1.7394,7.2165,172.5746,0.0000,0.0000,0.0000,0.0000,0.0000,nothing
320070,-0.1808,0.0939,0.0068,0.3472,1.2001,-9.7370,1.7682,7.1971,172.5867,0.0000,0.0000,0.0000,0.0000,0.0000,nothing
320186,-0.2147,0.1024,0.0248,0.3585,1.2426,-9.7136,1.8010,7.2059,172.5701,0.0000,0.0000,0.0000,0.0000,0.0000,nothing
320302,-0.2369,0.1261,0.0140,0.2909,1.2510,-9.7112,1.7911,7.2190,172.5598,0.0000,0.0000,0.0000,0.0000,0.0000,nothing
320418,-0.2225,0.0680,0.0255,0.2305,1.2277,-9.6729,1.7476,7.2203,172.5691,0.0000,0.0000,0.0000,0.0000,0.0000,nothing
320534,-0.2563,0.0795,-0.0363,0.2987,1.1965,-9.7430,1.7471,7.1980,172.5908,0.0000,0.0000,0.0000,0.0000,0.0000,nothing
320650,-0.2165,0.0721,-0.0085,0.3071,1.1930,-9.7280,1.7519,7.1770,172.6101,0.0000,0.0000,0.0000,0.0000,0.0000,nothing
320766,-0.1876,0.0912,-0.0236,0.3196,1.2223,-9.7376,1.7632,7.1744,172.6099,0.0000,0.0000,0.0000,0.0000,0.0000,nothing
320882,-0.2143,0.0523,-0.0195,0.3298,1.2205,-9.7166,1.7798,7.1725,172.6078,0.0000,0.0000,0.0000,0.0000,0.0000,nothing
320998,-0.2057,0.0690,-0.0179,0.2975,1.2366,-9.7214,1.7757,7.1798,172.6016,0.0000,0.0000,0.0000,0.0000,0.0000,nothing
321114,-0.2254,0.0908,0.0249,0.2975,1.2618,-9.7112,1.7721,7.2018,172.5811,0.0000,0.0000,0.0000,0.0000,0.0000,nothing
321230,-0.2360,0.0649,-0.0087,0.2969,1.2528,-9.7298,1.7683,7.2150,172.5692,0.0000,0.0000,0.0000,0.0000,0.0000,nothing
321346,-0.2090,0.0802,0.0669,0.3101,1.1894,-9.7286,1.7726,7.1902,172.5923,0.0000,0.0000,0.0000,0.0000,0.0000,nothing
321462,-0.2114,0.0778,-0.0337,0.3041,1.2025,-9.7525,1.7726,7.1737,172.6083,0.0000,0.0000,0.0000,0.0000,0.0000,nothing
321578,-0.1888,0.0623,0.0059,0.3208,1.2845,-9.7489,1.7823,7.2066,172.5740,0.0000,0.0000,0.0000,0.0000,0.0000,nothing
321694,-0.1887,0.0834,0.0097,0.2927,1.2660,-9.7244,1.7750,7.2274,172.5556,0.0000,0.0000,0.0000,0.0000,0.0000,nothing
321810,-0.2451,0.0742,0.0218,0.2951,1.2540,-9.7232,1.7699,7.2392,172.5453,0.0000,0.0000,0.0000,0.0000,0.0000,nothing
321926,-0.2293,0.0825,-0.0198,0.2897,1.2253,-9.6987,1.7627,7.2350,172.5511,0.0000,0.0000,0.0000,0.0000,0.0000,nothing
322042,-0.2465,0.0506,0.0020,0.3172,1.3606,-9.7507,1.7710,7.3057,172.4804,0.0000,0.0000,0.0000,0.0000,0.0000,nothing
322158,-0.1851,0.0977,-0.0154,0.2747,1.2127,-9.7208,1.7546,7.2860,172.5035,0.0000,0.0000,0.0000,0.0000,0.0000,nothing
322274,-0.1845,0.0678,0.0101,0.2963,1.2109,-9.7465,1.7519,7.2652,172.5243,0.0000,0.0000,0.0000,0.0000,0.0000,nothing
322390,-0.1883,0.0810,-0.0067,0.3544,1.2432,-9.7112,1.7840,7.2678,172.5142,0.0000,0.0000,0.0000,0.0000,0.0000,nothing
322506,-0.1866,0.1048,0.0143,0.3226,1.2456,-9.7501,1.7936,7.2687,172.5110,0.0000,0.0000,0.0000,0.0000,0.0000,nothing
322622,-0.2057,0.0688,-0.0075,0.3244,1.2277,-9.7274,1.8037,7.2607,172.5163,0.0000,0.0000,0.0000,0.0000,0.0000,nothing
322738,-0.1786,0.0600,0.0176,0.2765,1.2031,-9.6987,1.7855,7.2416,172.5393,0.0000,0.0000,0.0000,0.0000,0.0000,nothing
322854,-0.1755,0.0698,-0.0394,0.3232,1.2163,-9.7046,1.7962,7.2314,172.5465,0.0000,0.0000,0.0000,0.0000,0.0000,nothing
322970,-0.1971,0.0815,0.0384,0.2963,1.2666,-9.7178,1.7898,7.2505,172.5295,0.0000,0.0000,0.0000,0.0000,0.0000,nothing
323086,-0.2080,0.0761,0.0104,0.2436,1.2510,-9.7148,1.7533,7.2590,172.5300,0.0000,0.0000,0.0000,0.0000,0.0000,nothing
323202,-0.2101,0.0693,-0.0284,0.3280,1.1947,-9.6885,1.7704,7.2358,172.5485,0.0000,0.0000,0.0000,0.0000,0.0000,nothing
323318,-0.2243,0.0682,0.0563,0.3131,1.2229,-9.7394,1.7760,7.2275,172.5552,0.0000,0.0000,0.0000,0.0000,0.0000,nothing
323434,-0.2050,0.0676,-0.0053,0.2694,1.2175,-9.7388,1.7556,7.2171,172.5703,0.0000,0.0000,0.0000,0.0000,0.0000,nothing
323550,-0.2230,0.0519,-0.0100,0.3154,1.2355,-9.7388,1.7641,7.2180,172.5673,0.0000,0.0000,0.0000,0.0000,0.0000,nothing
323666,-0.1797,0.0915,0.0578,0.2322,1.2217,-9.7232,1.7235,7.2121,172.5827,0.0000,0.0000,0.0000,0.0000,0.0000,nothing
323782,-0.2056,0.0742,0.0120,0.3089,1.1924,-9.7148,1.7318,7.1903,172.6019,0.0000,0.0000,0.0000,0.0000,0.0000,nothing
323898,-0.2144,0.0575,-0.0198,0.3268,1.2169,-9.7394,1.7494,7.1831,172.6048,0.0000,0.0000,0.0000,0.0000,0.0000,nothing
324014,-0.2038,0.0984,-0.0055,0.2861,1.2199,-9.7956,1.7404,7.1743,172.6154,0.0000,0.0000,0.0000,0.0000,0.0000,nothing
324130,-0.1955,0.0799,-0.0112,0.3119,1.2390,-9.7208,1.7487,7.1829,172.6051,0.0000,0.0000,0.0000,0.0000,0.0000,nothing
324246,-0.2084,0.0746,0.0581,0.3208,1.2193,-9.7549,1.7607,7.1767,172.6083,0.0000,0.0000,0.0000,0.0000,0.0000,nothing
324362,-0.2072,0.0712,-0.0230,0.2819,1.2241,-9.7316,1.7493,7.1756,172.6120,0.0000,0.0000,0.0000,0.0000,0.0000,nothing
324478,-0.2037,0.0626,0.0019,0.2855,1.2253,-9.6933,1.7418,7.1782,172.6114,0.0000,0.0000,0.0000,0.0000,0.0000,nothing
324594,-0.2097,0.0485,-0.0511,0.3472,1.2570,-9.7507,1.7699,7.1945,172.5887,0.0000,0.0000,0.0000,0.0000,0.0000,nothing
324710,-0.2338,0.0754,-0.0037,0.2753,1.2169,-9.7298,1.7538,7.1877,172.5993,0.0000,0.0000,0.0000,0.0000,0.0000,nothing
324826,-0.2138,0.0470,0.0105,0.3059,1.1983,-9.7424,1.7569,7.1698,172.6159,0.0000,0.0000,0.0000,0.0000,0.0000,nothing
