timestamp_ms,gyro_x,gyro_y,gyro_z,accel_x,accel_y,accel_z,roll,pitch,yaw,adc0,adc1,adc2,adc3,adc4,Label
15328,-0.2011,0.0529,-0.0138,0.3250,1.2247,-9.7531,1.8730,7.0759,172.6780,0.0000,0.0000,0.0000,0.0000,0.0000,nothing
15444,-0.2198,0.0470,-0.0086,0.3190,1.2289,-9.7459,1.8717,7.0865,172.6680,0.0000,0.0000,0.0000,0.0000,0.0000,nothing
15560,-0.1992,0.0703,0.0025,0.2825,1.2558,-9.7220,1.8497,7.1136,172.6475,0.0000,0.0000,0.0000,0.0000,0.0000,nothing
15676,-0.2252,0.0987,-0.0504,0.3214,1.1385,-9.7376,1.8525,7.0688,172.6901,0.0000,0.0000,0.0000,0.0000,0.0000,nothing
15792,-0.2215,0.0444,0.0135,0.2771,1.2331,-9.7166,1.8294,7.0848,172.6805,0.0000,0.0000,0.0000,0.0000,0.0000,nothing
15908,-0.1900,0.0590,0.0085,0.3657,1.1834,-9.7603,1.8595,7.0671,172.6899,0.0000,0.0000,0.0000,0.0000,0.0000,nothing
16024,-0.0863,-0.0091,0.0244,0.2083,1.4252,-9.6975,1.7955,7.1961,172.5810,0.0000,0.0000,0.0000,0.0000,0.0000,หนึ่ง
16140,-0.3829,0.0350,0.0273,0.2628,1.1391,-9.8208,1.7680,7.1375,172.6446,0.0000,0.0000,0.0000,0.0000,0.0000,หนึ่ง
16256,-0.1570,0.0286,0.0042,0.1820,0.9721,-9.7154,1.6984,6.9959,172.7989,0.0000,0.0000,0.0000,0.0000,0.0000,หนึ่ง
16372,-0.0525,0.0143,-0.0616,0.2831,1.0978,-9.7837,1.6933,6.9361,172.8582,0.0000,0.0000,0.0000,0.0000,0.0000,หนึ่ง
16488,-0.0960,0.0382,0.0294,0.3196,1.3282,-9.7148,1.7107,7.0205,172.7720,0.0000,0.0000,0.0000,0.0000,0.0000,หนึ่ง
16604,-0.2345,0.0547,0.0300,0.4100,1.2959,-9.7005,1.7794,7.0786,172.6990,0.0000,0.0000,0.0000,0.0000,0.0000,หนึ่ง
16720,-0.2493,0.0697,-0.0033,0.3472,1.2666,-9.7011,1.8046,7.1140,172.6584,0.0000,0.0000,0.0000,0.0000,0.0000,หนึ่ง
16836,-0.2514,0.0600,-0.0360,0.3310,1.2319,-9.7154,1.8177,7.1248,172.6446,0.0000,0.0000,0.0000,0.0000,0.0000,หนึ่ง
16952,-0.2341,0.0796,-0.0145,0.4094,1.2444,-9.7537,1.8745,7.1388,172.6167,0.0000,0.0000,0.0000,0.0000,0.0000,หนึ่ง
17068,-0.2061,0.0708,0.0044,0.2191,1.1792,-9.7400,1.8150,7.1151,172.6547,0.0000,0.0000,0.0000,0.0000,0.0000,หนึ่ง
17184,-0.2324,0.0627,-0.0254,0.2957,1.2259,-9.7609,1.8056,7.1191,172.6532,0.0000,0.0000,0.0000,0.0000,0.0000,หนึ่ง
17300,-0.1967,0.0260,0.0319,0.3490,1.1361,-9.7023,1.8296,7.0749,172.6901,0.0000,0.0000,0.0000,0.0000,0.0000,หนึ่ง
17416,-0.1945,0.0658,0.0070,0.2903,1.2139,-9.7633,1.8156,7.0758,172.6927,0.0000,0.0000,0.0000,0.0000,0.0000,หนึ่ง
17532,-0.2001,0.0630,0.0300,0.2652,1.1534,-9.7292,1.7891,7.0441,172.7300,0.0000,0.0000,0.0000,0.0000,0.0000,หนึ่ง
17648,-0.1951,0.0262,0.0044,0.3053,1.2432,-9.7406,1.7883,7.0668,172.7083,0.0000,0.0000,0.0000,0.0000,0.0000,หนึ่ง
17764,0.1061,-0.0979,0.0303,-0.1886,1.6419,-10.0189,1.4944,7.2983,172.5486,0.0000,0.0000,0.0000,0.0000,0.0000,break_time
17880,-0.5689,0.1524,0.0870,0.2287,1.3977,-9.7651,1.4778,7.3829,172.4690,0.0000,0.0000,0.0000,0.0000,0.0000,break_time
17996,-0.2065,0.0882,0.0404,0.1502,1.0439,-9.7902,1.4175,7.2533,172.6080,0.0000,0.0000,0.0000,0.0000,0.0000,break_time
18112,-0.0618,0.0455,-0.0333,0.3310,1.0876,-9.7436,1.4689,7.1649,172.6846,0.0000,0.0000,0.0000,0.0000,0.0000,break_time
18228,-0.0406,0.0416,0.0260,0.3472,1.2241,-9.7567,1.5242,7.1631,172.6749,0.0000,0.0000,0.0000,0.0000,0.0000,break_time
18344,-0.1827,0.0405,-0.0567,0.3597,1.2564,-9.7124,1.5819,7.1833,172.6428,0.0000,0.0000,0.0000,0.0000,0.0000,break_time
18460,-0.2031,0.0729,0.0352,0.3065,1.2726,-9.7573,1.6021,7.2077,172.6146,0.0000,0.0000,0.0000,0.0000,0.0000,break_time
18576,-0.2084,0.0864,0.0064,0.4316,1.2073,-9.7585,1.6932,7.1916,172.6097,0.0000,0.0000,0.0000,0.0000,0.0000,break_time
18692,-0.1909,0.0383,0.0491,0.1616,1.2582,-9.7292,1.6185,7.2092,172.6095,0.0000,0.0000,0.0000,0.0000,0.0000,break_time
18808,-0.2087,0.0427,0.0307,0.2628,1.1852,-9.7334,1.6102,7.1823,172.6375,0.0000,0.0000,0.0000,0.0000,0.0000,break_time
18924,-0.1902,0.0739,0.0315,0.4974,1.2193,-9.7681,1.7387,7.1749,172.6153,0.0000,0.0000,0.0000,0.0000,0.0000,break_time
19040,-0.1907,0.0660,0.0157,0.1538,1.2612,-9.6987,1.6553,7.1981,172.6120,0.0000,0.0000,0.0000,0.0000,0.0000,break_time
19156,-0.1969,0.0570,0.0240,0.2700,1.1918,-9.7579,1.6471,7.1744,172.6371,0.0000,0.0000,0.0000,0.0000,0.0000,break_time
19272,-0.2083,0.0619,-0.0672,0.3711,1.2037,-9.7675,1.6984,7.1590,172.6402,0.0000,0.0000,0.0000,0.0000,0.0000,break_time
19388,-0.1909,0.0866,0.0323,0.3226,1.2361,-9.7352,1.7169,7.1663,172.6288,0.0000,0.0000,0.0000,0.0000,0.0000,break_time
19504,-0.1804,0.0619,0.0474,0.2382,1.2043,-9.7783,1.6836,7.1516,172.6509,0.0000,0.0000,0.0000,0.0000,0.0000,break_time
19620,-0.2360,0.1666,0.0408,0.4423,1.6700,-9.8202,1.7708,7.4037,172.3851,0.0000,0.0000,0.0000,0.0000,0.0000,break_time
19736,-0.2176,-0.1283,-0.0105,0.3735,0.7710,-9.7717,1.8120,7.1152,172.6553,0.0000,0.0000,0.0000,0.0000,0.0000,break_time
19852,-0.0650,-0.0605,-0.0382,0.2017,1.1660,-9.8381,1.7470,7.0793,172.7062,0.0000,0.0000,0.0000,0.0000,0.0000,break_time
19968,-0.1749,0.0622,-0.0249,0.4405,1.2660,-9.6681,1.8303,7.1164,172.6496,0.0000,0.0000,0.0000,0.0000,0.0000,break_time
20084,-0.2667,0.0500,0.0680,0.3424,1.2953,-9.7298,1.8471,7.1625,172.6007,0.0000,0.0000,0.0000,0.0000,0.0000,break_time
20200,-0.2544,0.0907,0.0004,0.2598,1.2085,-9.7328,1.8142,7.1539,172.6173,0.0000,0.0000,0.0000,0.0000,0.0000,break_time
20316,-0.2244,0.0641,-0.0076,0.3268,1.1636,-9.7495,1.8234,7.1188,172.6491,0.0000,0.0000,0.0000,0.0000,0.0000,break_time
20432,-0.1793,0.0454,0.0115,0.2951,1.2127,-9.7585,1.8129,7.1150,172.6554,0.0000,0.0000,0.0000,0.0000,0.0000,break_time
20548,-0.1970,0.0533,0.0588,0.3202,1.2361,-9.7400,1.8184,7.1263,172.6430,0.0000,0.0000,0.0000,0.0000,0.0000,break_time
20664,-0.2166,0.0578,0.0124,0.3214,1.2600,-9.7495,1.8239,7.1497,172.6190,0.0000,0.0000,0.0000,0.0000,0.0000,break_time
20780,-0.2110,0.0717,0.0971,0.3244,1.2582,-9.7477,1.8305,7.1698,172.5978,0.0000,0.0000,0.0000,0.0000,0.0000,nothing
20896,-0.2121,0.0529,0.0026,0.2879,1.2187,-9.7364,1.8156,7.1660,172.6053,0.0000,0.0000,0.0000,0.0000,0.0000,nothing
21012,-0.1884,0.0837,0.0230,0.3388,1.1983,-9.7424,1.8317,7.1502,172.6165,0.0000,0.0000,0.0000,0.0000,0.0000,nothing
21128,-0.1613,0.0927,0.0468,0.3256,0.9864,-9.6963,1.8399,7.0167,172.7437,0.0000,0.0000,0.0000,0.0000,0.0000,nothing
21244,0.0342,0.0070,-0.0041,0.0287,1.1391,-9.7256,1.6732,6.9834,172.8170,0.0000,0.0000,0.0000,0.0000,0.0000,หนึ่ง
21360,-0.2018,0.0465,-0.0868,0.1700,1.5018,-9.6951,1.6052,7.1654,172.6551,0.0000,0.0000,0.0000,0.0000,0.0000,หนึ่ง
21476,-0.2877,0.1311,0.0510,0.3053,1.3067,-9.7011,1.6233,7.2155,172.6022,0.0000,0.0000,0.0000,0.0000,0.0000,หนึ่ง
21592,-0.2822,0.0995,0.0399,0.3101,1.2247,-9.7843,1.6412,7.2070,172.6065,0.0000,0.0000,0.0000,0.0000,0.0000,หนึ่ง
21708,-0.2151,0.0664,0.0106,0.3556,1.1594,-9.7591,1.6843,7.1634,172.6393,0.0000,0.0000,0.0000,0.0000,0.0000,หนึ่ง
21824,-0.2075,0.0717,-0.0203,0.2735,1.1965,-9.7543,1.6753,7.1461,172.6582,0.0000,0.0000,0.0000,0.0000,0.0000,หนึ่ง
21940,-0.2061,0.0952,0.0059,0.3214,1.2504,-9.7244,1.6955,7.1638,172.6363,0.0000,0.0000,0.0000,0.0000,0.0000,nothing
22056,-0.2712,0.1152,0.0630,0.4082,1.3899,-9.6795,1.7648,7.2635,172.5229,0.0000,0.0000,0.0000,0.0000,0.0000,nothing
22172,-0.2324,0.1502,0.0564,0.1407,1.0068,-9.7286,1.6711,7.1285,172.6762,0.0000,0.0000,0.0000,0.0000,0.0000,nothing
22288,-0.1122,0.0224,-0.0562,0.3322,1.1127,-9.7735,1.6975,7.0647,172.7322,0.0000,0.0000,0.0000,0.0000,0.0000,nothing
22404,-0.1483,0.0294,0.0492,0.3597,1.2708,-9.7124,1.7380,7.1031,172.6852,0.0000,0.0000,0.0000,0.0000,0.0000,nothing
22520,-0.2353,0.0496,-0.0322,0.3992,1.2881,-9.7040,1.7977,7.1482,172.6269,0.0000,0.0000,0.0000,0.0000,0.0000,nothing
22636,-0.2428,0.0793,-0.0263,0.3226,1.2642,-9.6969,1.8069,7.1757,172.5980,0.0000,0.0000,0.0000,0.0000,0.0000,nothing
22752,-0.2373,0.0598,0.0061,0.3406,1.2121,-9.7825,1.8241,7.1640,172.6051,0.0000,0.0000,0.0000,0.0000,0.0000,nothing
22868,-0.2428,0.0432,0.0440,0.2969,1.2019,-9.7196,1.8154,7.1522,172.6186,0.0000,0.0000,0.0000,0.0000,0.0000,nothing
22984,-0.2179,0.0537,-0.0296,0.3466,1.1959,-9.7609,1.8357,7.1351,172.6302,0.0000,0.0000,0.0000,0.0000,0.0000,nothing
23100,-0.1830,0.0498,-0.0382,0.3382,1.1864,-9.7148,1.8500,7.1174,172.6436,0.0000,0.0000,0.0000,0.0000,0.0000,nothing
23216,-0.1952,0.0668,-0.0149,0.2765,1.2289,-9.7693,1.8258,7.1224,172.6450,0.0000,0.0000,0.0000,0.0000,0.0000,nothing
23332,-0.1984,0.0803,-0.0255,0.3047,1.1995,-9.7555,1.8208,7.1108,172.6575,0.0000,0.0000,0.0000,0.0000,0.0000,nothing
23448,-0.1720,0.0701,0.0124,0.3705,1.2055,-9.7214,1.8553,7.1061,172.6533,0.0000,0.0000,0.0000,0.0000,0.0000,nothing
23564,-0.2038,0.0847,-0.0479,0.2514,1.2169,-9.7202,1.8168,7.1089,172.6603,0.0000,0.0000,0.0000,0.0000,0.0000,nothing
23680,-0.1879,0.0616,0.0214,0.3316,1.3576,-9.7244,1.8286,7.1923,172.5765,0.0000,0.0000,0.0000,0.0000,0.0000,nothing
23796,-0.2138,0.0559,0.0149,0.3484,1.2594,-9.7178,1.8493,7.2110,172.5532,0.0000,0.0000,0.0000,0.0000,0.0000,nothing
23912,-0.2061,0.0774,0.0162,0.2999,1.2366,-9.7705,1.8388,7.2109,172.5559,0.0000,0.0000,0.0000,0.0000,0.0000,nothing
24028,-0.2138,0.0504,0.1202,0.3460,1.2343,-9.7537,1.8565,7.2106,172.5518,0.0000,0.0000,0.0000,0.0000,0.0000,nothing
24144,-0.1828,0.0693,0.0657,0.3017,1.2468,-9.7376,1.8468,7.2189,172.5462,0.0000,0.0000,0.0000,0.0000,0.0000,nothing
24260,-0.1842,0.0686,-0.0065,0.3609,1.2432,-9.7699,1.8721,7.2217,172.5371,0.0000,0.0000,0.0000,0.0000,0.0000,nothing
24376,-0.2139,0.0669,-0.0818,0.2963,1.2516,-9.7280,1.8579,7.2323,172.5304,0.0000,0.0000,0.0000,0.0000,0.0000,nothing
24492,-0.1892,0.0720,0.0027,0.3693,1.1816,-9.7663,1.8872,7.1984,172.5558,0.0000,0.0000,0.0000,0.0000,0.0000,nothing
24608,-0.1865,0.0548,0.0219,0.2729,1.2181,-9.7328,1.8579,7.1917,172.5698,0.0000,0.0000,0.0000,0.0000,0.0000,nothing
24724,-0.1821,0.0774,-0.0330,0.2945,1.1594,-9.7507,1.8439,7.1503,172.6134,0.0000,0.0000,0.0000,0.0000,0.0000,nothing
24840,-0.1900,0.0789,0.0041,0.3412,1.2343,-9.7232,1.8589,7.1583,172.6019,0.0000,0.0000,0.0000,0.0000,0.0000,nothing
24956,-0.1990,0.0635,-0.0406,0.3005,1.2019,-9.7382,1.8484,7.1457,172.6167,0.0000,0.0000,0.0000,0.0000,0.0000,nothing
25072,-0.1913,0.0600,0.0530,0.3047,1.1936,-9.7573,1.8411,7.1282,172.6355,0.0000,0.0000,0.0000,0.0000,0.0000,nothing
25188,-0.1891,0.0622,-0.0136,0.3232,1.1930,-9.7591,1.8453,7.1119,172.6502,0.0000,0.0000,0.0000,0.0000,0.0000,nothing
25304,-0.2057,0.0495,-0.0022,0.3017,1.1493,-9.7232,1.8373,7.0746,172.6884,0.0000,0.0000,0.0000,0.0000,0.0000,nothing
25420,-0.2097,-0.0333,-0.0454,0.4292,1.4587,-9.6544,1.9050,7.2249,172.5256,0.0000,0.0000,0.0000,0.0000,0.0000,หนึ่ง
25536,-0.3191,0.0766,0.0210,0.3334,1.1475,-9.8681,1.9067,7.1646,172.5835,0.0000,0.0000,0.0000,0.0000,0.0000,หนึ่ง
25652,-0.0738,0.0290,-0.0419,0.2849,0.9661,-9.7699,1.8824,7.0127,172.7366,0.0000,0.0000,0.0000,0.0000,0.0000,หนึ่ง
25768,-0.0607,0.0117,-0.0579,0.3310,1.2372,-9.7621,1.8868,7.0334,172.7154,0.0000,0.0000,0.0000,0.0000,0.0000,หนึ่ง
25884,-0.2084,0.0631,0.0226,0.3095,1.3288,-9.7304,1.8786,7.1073,172.6461,0.0000,0.0000,0.0000,0.0000,0.0000,หนึ่ง
26000,-0.2346,0.0543,0.0657,0.3256,1.2756,-9.7316,1.8808,7.1429,172.6112,0.0000,0.0000,0.0000,0.0000,0.0000,หนึ่ง
26116,-0.0886,0.2080,0.0098,0.3633,1.0176,-9.4095,1.9115,7.0485,172.6943,0.0000,0.0000,0.0000,0.0000,0.0000,break_time
26232,-0.1584,0.0372,-0.0091,0.4142,1.1349,-9.7220,1.9627,7.0089,172.7188,0.0000,0.0000,0.0000,0.0000,0.0000,break_time
26348,-0.2454,0.0249,-0.0230,0.3370,1.3199,-9.7172,1.9633,7.0812,172.6490,0.0000,0.0000,0.0000,0.0000,0.0000,break_time
26464,-0.2660,0.0807,0.0031,0.2999,1.2600,-9.7256,1.9421,7.1110,172.6260,0.0000,0.0000,0.0000,0.0000,0.0000,break_time
26580,-0.2225,0.0641,0.0056,0.3148,1.1906,-9.7567,1.9313,7.0952,172.6441,0.0000,0.0000,0.0000,0.0000,0.0000,break_time
26696,-0.2144,0.0727,-0.0738,0.2933,1.1852,-9.7471,1.9092,7.0786,172.6659,0.0000,0.0000,0.0000,0.0000,0.0000,break_time
26812,-0.2478,0.0404,0.0806,0.3556,1.0673,-9.7430,1.9261,6.9954,172.7417,0.0000,0.0000,0.0000,0.0000,0.0000,break_time
26928,-0.0517,-0.0544,-0.0656,0.2694,0.7680,-9.8166,1.8902,6.7420,172.9957,0.0000,0.0000,0.0000,0.0000,0.0000,break_time
27044,-0.1314,-0.0074,0.0450,0.2927,1.1947,-9.8220,1.8704,6.7612,172.9825,0.0000,0.0000,0.0000,0.0000,0.0000,break_time
27160,-0.2016,0.0464,0.0060,0.3334,1.3797,-9.6771,1.8788,6.8956,172.8507,0.0000,0.0000,0.0000,0.0000,0.0000,break_time
27276,-0.2912,0.0682,0.0135,0.3633,1.2432,-9.7519,1.9026,6.9321,172.8090,0.0000,0.0000,0.0000,0.0000,0.0000,break_time
27392,-0.2298,0.0747,0.0318,0.3113,1.2223,-9.7525,1.8937,6.9530,172.7913,0.0000,0.0000,0.0000,0.0000,0.0000,break_time
27508,-0.2480,0.0962,-0.0071,0.3059,1.2025,-9.7052,1.8835,6.9636,172.7837,0.0000,0.0000,0.0000,0.0000,0.0000,break_time
27624,-0.1966,0.0757,0.0070,0.3196,1.2378,-9.7699,1.8811,6.9890,172.7598,0.0000,0.0000,0.0000,0.0000,0.0000,break_time
27740,-0.1930,0.0420,0.0453,0.3238,1.2067,-9.7082,1.8825,6.9983,172.7505,0.0000,0.0000,0.0000,0.0000,0.0000,break_time
27856,-0.2023,0.0815,-0.0393,0.3143,1.1810,-9.7555,1.8774,6.9883,172.7614,0.0000,0.0000,0.0000,0.0000,0.0000,break_time
27972,-0.2065,0.0720,0.0534,0.3394,1.2199,-9.7256,1.8880,7.0040,172.7435,0.0000,0.0000,0.0000,0.0000,0.0000,break_time
28088,-0.2102,0.0654,0.0244,0.3083,1.1696,-9.7424,1.8791,6.9878,172.7615,0.0000,0.0000,0.0000,0.0000,0.0000,break_time
28204,-0.1832,0.0866,-0.0094,0.4567,1.1445,-9.6963,1.9587,6.9616,172.7654,0.0000,0.0000,0.0000,0.0000,0.0000,break_time
28320,-0.1673,0.0653,0.0045,0.3585,1.3420,-9.7424,1.9717,7.0495,172.6773,0.0000,0.0000,0.0000,0.0000,0.0000,break_time
28436,-0.2988,0.0872,0.0398,0.2125,1.3222,-9.7483,1.8981,7.1170,172.6317,0.0000,0.0000,0.0000,0.0000,0.0000,break_time
28552,-0.2059,0.1277,-0.0180,0.2221,1.0379,-9.7334,1.8384,7.0141,172.7466,0.0000,0.0000,0.0000,0.0000,0.0000,break_time
28668,-0.1557,0.0483,-0.0145,0.4298,1.1271,-9.7711,1.9050,6.9700,172.7719,0.0000,0.0000,0.0000,0.0000,0.0000,break_time
28784,-0.1506,0.0630,-0.0384,0.3274,1.1792,-9.7352,1.9057,6.9632,172.7782,0.0000,0.0000,0.0000,0.0000,0.0000,break_time
28900,-0.1489,0.0549,0.0139,0.2077,1.2558,-9.7196,1.8367,7.0029,172.7579,0.0000,0.0000,0.0000,0.0000,0.0000,break_time
29016,-0.1990,0.0166,-0.0303,0.3550,1.2055,-9.7585,1.8598,7.0064,172.7485,0.0000,0.0000,0.0000,0.0000,0.0000,break_time
29132,-0.2132,0.0577,-0.0322,0.4394,1.1864,-9.7483,1.9301,6.9990,172.7372,0.0000,0.0000,0.0000,0.0000,0.0000,nothing
29248,-0.2188,0.0582,0.0030,0.2137,1.2486,-9.7292,1.8619,7.0303,172.7249,0.0000,0.0000,0.0000,0.0000,0.0000,nothing
29364,-0.2113,0.0623,-0.0323,0.3137,1.1642,-9.7567,1.8585,7.0073,172.7480,0.0000,0.0000,0.0000,0.0000,0.0000,nothing
29480,-0.2059,0.0379,-0.0294,0.2951,1.2103,-9.7208,1.8453,7.0160,172.7430,0.0000,0.0000,0.0000,0.0000,0.0000,nothing
29596,-0.1838,0.0311,-0.0259,0.3771,1.1708,-9.7711,1.8803,6.9971,172.7522,0.0000,0.0000,0.0000,0.0000,0.0000,nothing
29712,-0.1835,0.1386,0.0292,0.2718,1.1403,-9.6717,1.8523,6.9698,172.7859,0.0000,0.0000,0.0000,0.0000,0.0000,nothing
29828,-0.2110,0.0484,0.0151,0.5309,1.1624,-9.7813,1.9762,6.9496,172.7722,0.0000,0.0000,0.0000,0.0000,0.0000,nothing
29944,-0.2455,0.0748,0.0395,0.4022,1.1810,-9.7962,2.0122,6.9414,172.7701,0.0000,0.0000,0.0000,0.0000,0.0000,nothing
30060,-0.2309,0.0920,-0.0210,0.2305,1.2863,-9.7280,1.9456,7.0003,172.7317,0.0000,0.0000,0.0000,0.0000,0.0000,nothing
30176,-0.1710,0.0506,0.0489,0.2221,1.1720,-9.7352,1.8808,6.9867,172.7622,0.0000,0.0000,0.0000,0.0000,0.0000,nothing
30292,-0.1787,0.0458,0.0454,0.3699,1.1175,-9.7226,1.9091,6.9433,172.7965,0.0000,0.0000,0.0000,0.0000,0.0000,nothing
30408,-0.1226,0.0243,-0.0551,0.2903,0.8949,-9.7627,1.8879,6.7727,172.9667,0.0000,0.0000,0.0000,0.0000,0.0000,nothing
30524,-0.0877,0.0135,0.0244,0.3951,1.2013,-9.7603,1.9293,6.7966,172.9324,0.0000,0.0000,0.0000,0.0000,0.0000,nothing
30640,-0.2199,0.0952,0.0495,0.2909,1.3606,-9.7507,1.9056,6.9112,172.8284,0.0000,0.0000,0.0000,0.0000,0.0000,nothing
30756,-0.2677,0.0922,0.0947,0.3286,1.2941,-9.7286,1.9068,6.9774,172.7643,0.0000,0.0000,0.0000,0.0000,0.0000,nothing
30872,-0.2424,0.0663,0.0093,0.3017,1.1864,-9.7561,1.8919,6.9726,172.7728,0.0000,0.0000,0.0000,0.0000,0.0000,nothing
30988,-0.2123,0.0570,0.0273,0.1389,1.2061,-9.7346,1.7840,6.9817,172.7918,0.0000,0.0000,0.0000,0.0000,0.0000,nothing
31104,-0.1891,0.0402,0.0110,0.5267,1.0732,-9.7723,1.9126,6.9094,172.8283,0.0000,0.0000,0.0000,0.0000,0.0000,nothing
31220,-0.1744,0.0744,0.0731,0.2819,1.2013,-9.7142,1.8864,6.9231,172.8221,0.0000,0.0000,0.0000,0.0000,0.0000,nothing
31336,-0.2333,0.0547,-0.0063,0.3143,1.1989,-9.7693,1.8806,6.9301,172.8168,0.0000,0.0000,0.0000,0.0000,0.0000,nothing
31452,-0.2102,0.0664,0.0494,0.2424,1.2187,-9.7615,1.8336,6.9486,172.8113,0.0000,0.0000,0.0000,0.0000,0.0000,nothing
31568,-0.2093,0.0646,-0.0104,0.3101,1.2450,-9.7346,1.8312,6.9822,172.7794,0.0000,0.0000,0.0000,0.0000,0.0000,nothing
31684,-0.2082,0.0510,0.0046,0.3406,1.2283,-9.7447,1.8467,7.0019,172.7563,0.0000,0.0000,0.0000,0.0000,0.0000,nothing
31800,-0.2279,0.0484,-0.0160,0.3029,1.2043,-9.7334,1.8389,7.0067,172.7536,0.0000,0.0000,0.0000,0.0000,0.0000,nothing
31916,-0.1996,0.0509,-0.0130,0.3609,1.2378,-9.7244,1.8659,7.0310,172.7233,0.0000,0.0000,0.0000,0.0000,0.0000,nothing
32032,-0.2239,0.0519,-0.0090,0.4016,1.2001,-9.7364,1.9137,7.0300,172.7116,0.0000,0.0000,0.0000,0.0000,0.0000,nothing
32148,-0.2309,0.0724,0.0375,0.2706,1.2456,-9.7711,1.8796,7.0533,172.6981,0.0000,0.0000,0.0000,0.0000,0.0000,nothing
32264,-0.2218,0.0479,0.0060,0.2209,1.2229,-9.7621,1.8201,7.0619,172.7050,0.0000,0.0000,0.0000,0.0000,0.0000,nothing
32380,-0.2000,0.0982,-0.0229,0.2885,1.2109,-9.7657,1.8060,7.0622,172.7082,0.0000,0.0000,0.0000,0.0000,0.0000,nothing
32496,-0.1849,0.0656,0.0019,0.2801,1.2067,-9.7262,1.7892,7.0629,172.7117,0.0000,0.0000,0.0000,0.0000,0.0000,nothing
32612,-0.1925,0.0667,-0.0457,0.3286,1.2217,-9.7406,1.8020,7.0711,172.7006,0.0000,0.0000,0.0000,0.0000,0.0000,nothing
32728,-0.2296,0.0607,-0.0594,0.3472,1.2384,-9.7465,1.8242,7.0877,172.6790,0.0000,0.0000,0.0000,0.0000,0.0000,nothing
32844,-0.2007,0.0868,-0.0014,0.2400,1.2666,-9.7328,1.7819,7.1202,172.6580,0.0000,0.0000,0.0000,0.0000,0.0000,nothing
32960,-0.2147,0.0727,-0.0312,0.3496,1.1971,-9.7537,1.8074,7.1074,172.6640,0.0000,0.0000,0.0000,0.0000,0.0000,nothing
33076,-0.2617,0.0372,-0.0011,0.1574,1.2157,-9.7358,1.7187,7.1084,172.6846,0.0000,0.0000,0.0000,0.0000,0.0000,nothing
33192,-0.2120,0.0615,0.0579,0.3490,1.2247,-9.7549,1.7502,7.1127,172.6729,0.0000,0.0000,0.0000,0.0000,0.0000,nothing
33308,-0.2153,0.0860,0.0026,0.2095,1.3594,-9.7388,1.6972,7.1960,172.6045,0.0000,0.0000,0.0000,0.0000,0.0000,nothing
33424,-0.2005,0.0817,0.0785,0.2741,1.1959,-9.7938,1.6866,7.1722,172.6301,0.0000,0.0000,0.0000,0.0000,0.0000,nothing
33540,-0.1805,0.0799,-0.0345,0.3771,1.0822,-9.7400,1.7382,7.0888,172.6991,0.0000,0.0000,0.0000,0.0000,0.0000,nothing
33656,-0.2075,0.0718,0.0357,0.2299,1.2133,-9.7501,1.6984,7.0891,172.7083,0.0000,0.0000,0.0000,0.0000,0.0000,nothing
33772,-0.1958,0.0627,-0.0279,0.3418,1.2193,-9.7687,1.7275,7.0912,172.6993,0.0000,0.0000,0.0000,0.0000,0.0000,nothing
33888,-0.1918,0.0590,-0.0059,0.3011,1.2594,-9.7256,1.7306,7.1195,172.6711,0.0000,0.0000,0.0000,0.0000,0.0000,nothing
34004,-0.2067,0.0902,0.0282,0.3346,1.2797,-9.7447,1.7525,7.1553,172.6310,0.0000,0.0000,0.0000,0.0000,0.0000,nothing
34120,-0.1994,0.0461,0.0330,0.2735,1.2151,-9.7477,1.7368,7.1501,172.6399,0.0000,0.0000,0.0000,0.0000,0.0000,nothing
34236,-0.1834,0.0649,-0.0109,0.3651,1.2031,-9.7250,1.7764,7.1399,172.6402,0.0000,0.0000,0.0000,0.0000,0.0000,nothing
34352,-0.1787,0.0594,0.0117,0.2855,1.1840,-9.7238,1.7657,7.1198,172.6623,0.0000,0.0000,0.0000,0.0000,0.0000,nothing
34468,-0.1745,0.0562,0.0200,0.3148,1.2127,-9.7370,1.7729,7.1174,172.6629,0.0000,0.0000,0.0000,0.0000,0.0000,nothing
34584,-0.2067,0.0564,-0.0023,0.4262,1.2325,-9.7040,1.8449,7.1288,172.6339,0.0000,0.0000,0.0000,0.0000,0.0000,nothing
34700,-0.2266,0.0631,0.0369,0.2825,1.2127,-9.7442,1.8252,7.1251,172.6425,0.0000,0.0000,0.0000,0.0000,0.0000,nothing
34816,-0.1975,0.0474,-0.0106,0.3274,1.1852,-9.7178,1.8342,7.1076,172.6572,0.0000,0.0000,0.0000,0.0000,0.0000,nothing
34932,-0.2116,0.0695,0.0243,0.2975,1.2504,-9.7310,1.8245,7.1287,172.6392,0.0000,0.0000,0.0000,0.0000,0.0000,nothing
35048,-0.2406,0.0494,-0.0158,0.3059,1.2343,-9.7615,1.8201,7.1361,172.6331,0.0000,0.0000,0.0000,0.0000,0.0000,nothing
35164,-0.2093,0.0916,0.0083,0.3352,1.2103,-9.7513,1.8335,7.1296,172.6360,0.0000,0.0000,0.0000,0.0000,0.0000,nothing
35280,-0.2159,0.0663,0.0398,0.2813,1.1840,-9.7621,1.8140,7.1079,172.6620,0.0000,0.0000,0.0000,0.0000,0.0000,nothing
35396,-0.1756,0.0883,-0.0226,0.3119,1.2283,-9.7304,1.8147,7.1161,172.6538,0.0000,0.0000,0.0000,0.0000,0.0000,nothing
35512,-0.2026,0.0459,0.0172,0.2807,1.2331,-9.7076,1.7976,7.1281,172.6465,0.0000,0.0000,0.0000,0.0000,0.0000,nothing
35628,-0.1939,0.0789,-0.0057,0.3340,1.1810,-9.7220,1.8131,7.1075,172.6625,0.0000,0.0000,0.0000,0.0000,0.0000,nothing
35744,-0.1939,0.0334,-0.0147,0.3544,1.2181,-9.7471,1.8385,7.1086,172.6551,0.0000,0.0000,0.0000,0.0000,0.0000,nothing
35860,-0.2033,0.0537,0.0130,0.3095,1.1648,-9.7274,1.8355,7.0803,172.6833,0.0000,0.0000,0.0000,0.0000,0.0000,nothing
35976,-0.1919,0.0562,0.0191,0.3208,1.2079,-9.7507,1.8390,7.0781,172.6845,0.0000,0.0000,0.0000,0.0000,0.0000,nothing
36092,-0.1926,0.0695,-0.0626,0.2376,1.2073,-9.7519,1.7936,7.0758,172.6981,0.0000,0.0000,0.0000,0.0000,0.0000,nothing
36208,-0.2031,0.0619,0.0079,0.3460,1.1989,-9.7735,1.8155,7.0672,172.7010,0.0000,0.0000,0.0000,0.0000,0.0000,nothing
36324,-0.1898,0.0937,0.0499,0.1778,1.2157,-9.6891,1.7387,7.0755,172.7119,0.0000,0.0000,0.0000,0.0000,0.0000,nothing
36440,-0.1978,0.0652,-0.0102,0.3382,1.2277,-9.7507,1.7619,7.0852,172.6969,0.0000,0.0000,0.0000,0.0000,0.0000,nothing
36556,-0.2177,0.0597,0.0920,0.2807,1.2331,-9.7226,1.7498,7.0991,172.6862,0.0000,0.0000,0.0000,0.0000,0.0000,nothing
36672,-0.1845,0.0607,-0.0042,0.3340,1.2271,-9.7298,1.7699,7.1076,172.6732,0.0000,0.0000,0.0000,0.0000,0.0000,nothing
36788,-0.1988,0.0513,-0.0360,0.3214,1.2163,-9.7442,1.7804,7.1079,172.6702,0.0000,0.0000,0.0000,0.0000,0.0000,nothing
36904,-0.2202,0.0718,0.0503,0.2993,1.2582,-9.7801,1.7762,7.1300,172.6499,0.0000,0.0000,0.0000,0.0000,0.0000,nothing
37020,-0.2136,0.0815,0.0199,0.3400,1.2313,-9.7711,1.7964,7.1348,172.6403,0.0000,0.0000,0.0000,0.0000,0.0000,nothing
37136,-0.2172,0.0439,-0.0476,0.3382,1.2103,-9.7585,1.8137,7.1279,172.6427,0.0000,0.0000,0.0000,0.0000,0.0000,nothing
37252,-0.1936,0.0928,-0.0029,0.3190,1.2187,-9.7645,1.8181,7.1261,172.6433,0.0000,0.0000,0.0000,0.0000,0.0000,nothing
37368,-0.2273,0.0952,-0.0438,0.3238,1.2504,-9.7645,1.8247,7.1429,172.6254,0.0000,0.0000,0.0000,0.0000,0.0000,nothing
37484,-0.1994,0.0841,-0.0059,0.3077,1.1840,-9.7202,1.8222,7.1228,172.6455,0.0000,0.0000,0.0000,0.0000,0.0000,nothing
37600,-0.1684,0.0770,0.0404,0.3723,1.1822,-9.7801,1.8565,7.0992,172.6596,0.0000,0.0000,0.0000,0.0000,0.0000,nothing
37716,-0.2397,0.0459,-0.0788,0.2257,1.1684,-9.7172,1.8031,7.0749,172.6967,0.0000,0.0000,0.0000,0.0000,0.0000,nothing
37832,-0.1298,0.0434,-0.0150,0.1293,1.1648,-9.7388,1.6985,7.0495,172.7467,0.0000,0.0000,0.0000,0.0000,0.0000,nothing
37948,-0.2566,0.0425,-0.0292,0.4525,1.2396,-10.0003,1.7879,7.0506,172.7240,0.0000,0.0000,0.0000,0.0000,0.0000,nothing
38064,-0.2541,0.0181,0.0029,0.2700,1.1720,-9.7855,1.7660,7.0282,172.7511,0.0000,0.0000,0.0000,0.0000,0.0000,nothing
38180,-0.2934,0.0684,-0.0494,0.2275,1.2426,-9.8136,1.7209,7.0470,172.7439,0.0000,0.0000,0.0000,0.0000,0.0000,nothing
38296,-0.2679,0.0907,-0.0402,0.0335,1.4330,-9.7154,1.5689,7.1811,172.6478,0.0000,0.0000,0.0000,0.0000,0.0000,nothing
38412,-0.3123,0.0781,0.0588,0.3550,1.0361,-9.7675,1.6189,7.0684,172.7467,0.0000,0.0000,0.0000,0.0000,0.0000,nothing
38528,-0.2099,0.0536,0.0326,0.3633,1.0786,-9.7884,1.6684,6.9899,172.8118,0.0000,0.0000,0.0000,0.0000,0.0000,nothing
38644,-0.1365,0.0413,0.0832,0.2125,1.1295,-9.7729,1.6253,6.9501,172.8606,0.0000,0.0000,0.0000,0.0000,0.0000,nothing
38760,-0.1489,0.0293,0.0412,0.3131,1.1690,-9.7609,1.6451,6.9377,172.8680,0.0000,0.0000,0.0000,0.0000,0.0000,nothing
38876,-0.1500,0.0593,0.0499,0.3083,1.2438,-9.7082,1.6610,6.9735,172.8295,0.0000,0.0000,0.0000,0.0000,0.0000,nothing
38992,-0.1560,0.0676,0.0428,0.3998,1.2313,-9.7597,1.7276,6.9946,172.7931,0.0000,0.0000,0.0000,0.0000,0.0000,nothing
39108,-0.2089,0.0708,0.0214,0.3286,1.2893,-9.7447,1.7463,7.0484,172.7363,0.0000,0.0000,0.0000,0.0000,0.0000,nothing
39224,-0.2583,0.0648,0.0352,0.2963,1.2480,-9.7406,1.7445,7.0733,172.7126,0.0000,0.0000,0.0000,0.0000,0.0000,nothing
39340,-0.1966,0.0819,0.0045,0.3723,1.1924,-9.7693,1.7868,7.0614,172.7139,0.0000,0.0000,0.0000,0.0000,0.0000,nothing
39456,-0.2082,0.0549,-0.0318,0.3268,1.1523,-9.7771,1.7982,7.0270,172.7443,0.0000,0.0000,0.0000,0.0000,0.0000,nothing
39572,-0.1644,0.0781,-0.0284,0.3334,1.2001,-9.7340,1.8131,7.0267,172.7408,0.0000,0.0000,0.0000,0.0000,0.0000,nothing
39688,-0.2033,0.0633,0.0149,0.2951,1.2235,-9.7561,1.8037,7.0385,172.7318,0.0000,0.0000,0.0000,0.0000,0.0000,nothing
39804,-0.1971,0.0593,0.0173,0.3208,1.2558,-9.7483,1.8103,7.0683,172.7012,0.0000,0.0000,0.0000,0.0000,0.0000,nothing
39920,-0.1894,0.0878,0.0935,0.3268,1.2037,-9.7202,1.8203,7.0671,172.7000,0.0000,0.0000,0.0000,0.0000,0.0000,nothing
40036,-0.1963,0.0429,0.0327,0.3340,1.0786,-9.7777,1.8328,6.9894,172.7719,0.0000,0.0000,0.0000,0.0000,0.0000,nothing
40152,-0.2057,0.0740,0.0059,0.3651,1.2361,-9.7304,1.8626,7.0139,172.7406,0.0000,0.0000,0.0000,0.0000,0.0000,nothing
40268,-0.2333,0.0639,0.0085,0.3148,1.0816,-9.7639,1.8600,6.9444,172.8085,0.0000,0.0000,0.0000,0.0000,0.0000,nothing
40384,-0.2338,0.0690,0.0123,0.3705,1.1876,-9.7196,1.8906,6.9460,172.7988,0.0000,0.0000,0.0000,0.0000,0.0000,nothing
40500,-0.1809,0.0578,-0.0124,0.3358,1.2025,-9.7531,1.8972,6.9539,172.7895,0.0000,0.0000,0.0000,0.0000,0.0000,nothing
40616,-0.2087,0.0682,0.0263,0.3017,1.1918,-9.7316,1.8838,6.9564,172.7906,0.0000,0.0000,0.0000,0.0000,0.0000,nothing
40732,-0.1985,0.0476,-0.0149,0.3017,1.2043,-9.8070,1.8702,6.9605,172.7902,0.0000,0.0000,0.0000,0.0000,0.0000,nothing
40848,-0.1680,0.0763,0.0297,0.2604,1.1858,-9.7459,1.8351,6.9579,172.8018,0.0000,0.0000,0.0000,0.0000,0.0000,nothing
40964,-0.1892,0.0772,0.0076,0.3550,1.2462,-9.7711,1.8581,6.9886,172.7663,0.0000,0.0000,0.0000,0.0000,0.0000,nothing
41080,-0.1941,0.0650,0.0085,0.3029,1.2456,-9.7298,1.8491,7.0189,172.7393,0.0000,0.0000,0.0000,0.0000,0.0000,nothing
41196,-0.2188,0.0588,0.0365,0.3274,1.1959,-9.7561,1.8550,7.0155,172.7411,0.0000,0.0000,0.0000,0.0000,0.0000,nothing
41312,-0.2240,0.0496,-0.0127,0.2927,1.1780,-9.7579,1.8401,7.0020,172.7579,0.0000,0.0000,0.0000,0.0000,0.0000,nothing
41428,-0.1699,0.0225,0.0423,0.3448,1.2199,-9.7717,1.8566,7.0129,172.7431,0.0000,0.0000,0.0000,0.0000,0.0000,nothing
41544,-0.2113,0.0656,0.0022,0.2975,1.2259,-9.7471,1.8444,7.0281,172.7315,0.0000,0.0000,0.0000,0.0000,0.0000,nothing
41660,-0.2112,0.0766,0.0168,0.3849,1.2199,-9.7519,1.8842,7.0378,172.7118,0.0000,0.0000,0.0000,0.0000,0.0000,nothing
41776,-0.1883,0.0887,0.0322,0.2957,1.1953,-9.7585,1.8681,7.0321,172.7216,0.0000,0.0000,0.0000,0.0000,0.0000,nothing
41892,-0.1845,0.0784,0.0534,0.3388,1.2007,-9.7250,1.8793,7.0323,172.7185,0.0000,0.0000,0.0000,0.0000,0.0000,nothing
42008,-0.1860,0.0819,-0.0183,0.3699,1.1965,-9.7238,1.9075,7.0301,172.7132,0.0000,0.0000,0.0000,0.0000,0.0000,nothing
42124,-0.1985,0.0997,-0.0022,0.4615,1.1918,-9.7795,1.9852,7.0212,172.7009,0.0000,0.0000,0.0000,0.0000,0.0000,nothing
42240,-0.1937,0.0702,-0.0040,0.2556,1.2175,-9.7501,1.9357,7.0306,172.7052,0.0000,0.0000,0.0000,0.0000,0.0000,nothing
42356,-0.2262,0.0748,0.0551,0.2340,1.1858,-9.7418,1.8788,7.0214,172.7292,0.0000,0.0000,0.0000,0.0000,0.0000,nothing
42472,-0.1669,0.0747,-0.0029,0.2933,1.1774,-9.7106,1.8628,7.0103,172.7440,0.0000,0.0000,0.0000,0.0000,0.0000,nothing
42588,-0.2064,0.0470,0.0451,0.3352,1.2588,-9.6999,1.8727,7.0481,172.7049,0.0000,0.0000,0.0000,0.0000,0.0000,nothing
42704,-0.2114,0.0600,-0.0104,0.3011,1.1265,-9.7298,1.8615,7.0035,172.7509,0.0000,0.0000,0.0000,0.0000,0.0000,nothing
42820,-0.2083,0.0519,0.0169,0.3723,1.2091,-9.7364,1.8927,7.0106,172.7360,0.0000,0.0000,0.0000,0.0000,0.0000,nothing
42936,-0.1801,0.0718,-0.0059,0.3328,1.2091,-9.6999,1.8984,7.0196,172.7257,0.0000,0.0000,0.0000,0.0000,0.0000,nothing
43052,-0.1919,0.0423,0.0245,0.3071,1.2175,-9.7543,1.8875,7.0288,172.7197,0.0000,0.0000,0.0000,0.0000,0.0000,nothing
43168,-0.2054,0.0510,0.0055,0.3214,1.2223,-9.7400,1.8863,7.0408,172.7084,0.0000,0.0000,0.0000,0.0000,0.0000,nothing
43284,-0.2093,0.0620,0.0123,0.4310,1.1912,-9.7394,1.9492,7.0334,172.6989,0.0000,0.0000,0.0000,0.0000,0.0000,nothing
43400,-0.1926,0.0598,-0.0342,0.3113,1.2169,-9.7735,1.9352,7.0394,172.6968,0.0000,0.0000,0.0000,0.0000,0.0000,nothing
43516,-0.2391,0.0481,-0.0582,0.2370,1.0738,-9.7669,1.8799,6.9627,172.7856,0.0000,0.0000,0.0000,0.0000,0.0000,nothing
43632,-0.1737,0.0881,0.0183,0.3280,1.2049,-9.7597,1.8829,6.9699,172.7778,0.0000,0.0000,0.0000,0.0000,0.0000,nothing
43748,-0.1756,0.0669,0.0982,0.3322,1.2594,-9.7214,1.8887,7.0105,172.7370,0.0000,0.0000,0.0000,0.0000,0.0000,nothing
43864,-0.1830,0.0436,-0.0344,0.3119,1.2552,-9.7310,1.8819,7.0441,172.7064,0.0000,0.0000,0.0000,0.0000,0.0000,nothing
43980,-0.2333,0.0896,0.0209,0.3346,1.2510,-9.7280,1.8891,7.0720,172.6775,0.0000,0.0000,0.0000,0.0000,0.0000,nothing
44096,-0.2493,0.0583,0.0348,0.3591,1.1995,-9.7597,1.9094,7.0651,172.6789,0.0000,0.0000,0.0000,0.0000,0.0000,nothing
44212,-0.1970,0.0799,-0.0294,0.2640,1.2169,-9.7280,1.8727,7.0713,172.6824,0.0000,0.0000,0.0000,0.0000,0.0000,nothing
44328,-0.2154,0.0808,-0.0263,0.2903,1.1947,-9.7783,1.8542,7.0605,172.6977,0.0000,0.0000,0.0000,0.0000,0.0000,nothing
44444,-0.1700,0.0575,0.0165,0.3597,1.2127,-9.7208,1.8791,7.0650,172.6869,0.0000,0.0000,0.0000,0.0000,0.0000,nothing
44560,-0.2059,0.0598,-0.0320,0.2801,1.2588,-9.7459,1.8544,7.0942,172.6650,0.0000,0.0000,0.0000,0.0000,0.0000,nothing
44676,-0.1963,0.0742,0.0020,0.3190,1.1977,-9.7106,1.8557,7.0876,172.6711,0.0000,0.0000,0.0000,0.0000,0.0000,nothing
44792,-0.1866,0.1044,0.0961,0.3089,1.2696,-9.7400,1.8503,7.1211,172.6400,0.0000,0.0000,0.0000,0.0000,0.0000,nothing
44908,-0.1973,0.0983,0.0012,0.3089,1.2636,-9.7501,1.8452,7.1471,172.6161,0.0000,0.0000,0.0000,0.0000,0.0000,nothing
45024,-0.2091,0.0817,0.0063,0.3208,1.2259,-9.7681,1.8473,7.1473,172.6154,0.0000,0.0000,0.0000,0.0000,0.0000,nothing
45140,-0.1911,0.0736,0.0016,0.3196,1.2247,-9.7316,1.8492,7.1495,172.6128,0.0000,0.0000,0.0000,0.0000,0.0000,nothing
45256,-0.1967,0.0762,-0.0465,0.3286,1.2277,-9.7256,1.8563,7.1536,172.6071,0.0000,0.0000,0.0000,0.0000,0.0000,nothing
45372,-0.2147,0.0568,0.0518,0.2777,1.2145,-9.7280,1.8330,7.1496,172.6168,0.0000,0.0000,0.0000,0.0000,0.0000,nothing
45488,-0.2048,0.0890,0.0693,0.3771,1.2019,-9.7645,1.8693,7.1358,172.6209,0.0000,0.0000,0.0000,0.0000,0.0000,nothing
45604,-0.2181,0.0798,-0.0015,0.3113,1.2175,-9.7998,1.8628,7.1300,172.6282,0.0000,0.0000,0.0000,0.0000,0.0000,nothing
45720,-0.2255,0.0619,0.0207,0.3029,1.2163,-9.7280,1.8535,7.1294,172.6312,0.0000,0.0000,0.0000,0.0000,0.0000,nothing
45836,-0.2116,0.0496,-0.0582,0.3148,1.2073,-9.7286,1.8521,7.1235,172.6372,0.0000,0.0000,0.0000,0.0000,0.0000,nothing
45952,-0.2154,0.0581,0.0409,0.3238,1.2175,-9.7693,1.8553,7.1212,172.6387,0.0000,0.0000,0.0000,0.0000,0.0000,nothing
46068,-0.2054,0.0904,0.0089,0.3603,1.2211,-9.7453,1.8799,7.1228,172.6309,0.0000,0.0000,0.0000,0.0000,0.0000,nothing
46184,-0.2042,0.0763,0.0537,0.2400,1.2612,-9.7256,1.8322,7.1491,172.6175,0.0000,0.0000,0.0000,0.0000,0.0000,nothing
46300,-0.1895,0.0800,0.0162,0.3334,1.2097,-9.7603,1.8432,7.1403,172.6232,0.0000,0.0000,0.0000,0.0000,0.0000,nothing
46416,-0.2078,0.0931,0.0285,0.3478,1.2025,-9.7459,1.8617,7.1292,172.6292,0.0000,0.0000,0.0000,0.0000,0.0000,nothing
46532,-0.1839,0.0401,0.0195,0.2999,1.1840,-9.7591,1.8502,7.1077,172.6530,0.0000,0.0000,0.0000,0.0000,0.0000,nothing
46648,-0.1879,0.0598,0.0102,0.3071,1.2576,-9.7388,1.8443,7.1324,172.6306,0.0000,0.0000,0.0000,0.0000,0.0000,nothing
46764,-0.2030,0.0558,0.0337,0.3538,1.0750,-9.7340,1.8667,7.0492,172.7054,0.0000,0.0000,0.0000,0.0000,0.0000,nothing
46880,-0.2033,0.0721,0.0248,0.3017,1.2325,-9.7609,1.8557,7.0636,172.6943,0.0000,0.0000,0.0000,0.0000,0.0000,nothing
46996,-0.2071,0.0626,-0.0106,0.3406,1.2259,-9.7543,1.8685,7.0731,172.6818,0.0000,0.0000,0.0000,0.0000,0.0000,nothing
47112,-0.1988,0.0459,0.0424,0.3364,1.2181,-9.7142,1.8784,7.0801,172.6725,0.0000,0.0000,0.0000,0.0000,0.0000,nothing
47228,-0.1761,0.0723,-0.0170,0.3125,1.2253,-9.7214,1.8732,7.0900,172.6642,0.0000,0.0000,0.0000,0.0000,0.0000,nothing
47344,-0.2099,0.0570,-0.0145,0.2867,1.2265,-9.7453,1.8531,7.0981,172.6616,0.0000,0.0000,0.0000,0.0000,0.0000,nothing
47460,-0.1710,0.0468,-0.0134,0.3220,1.2025,-9.7651,1.8553,7.0899,172.6690,0.0000,0.0000,0.0000,0.0000,0.0000,nothing
47576,-0.1921,0.0784,-0.0594,0.3472,1.2145,-9.7376,1.8724,7.0914,172.6631,0.0000,0.0000,0.0000,0.0000,0.0000,nothing
47692,-0.2179,0.0661,-0.0187,0.3412,1.2337,-9.7459,1.8840,7.1033,172.6487,0.0000,0.0000,0.0000,0.0000,0.0000,nothing
47808,-0.2395,0.0723,0.0371,0.3292,1.2504,-9.7519,1.8874,7.1232,172.6285,0.0000,0.0000,0.0000,0.0000,0.0000,nothing
47924,-0.1879,0.0882,-0.0112,0.3089,1.2085,-9.7400,1.8789,7.1178,172.6358,0.0000,0.0000,0.0000,0.0000,0.0000,nothing
48040,-0.2071,0.0717,0.0104,0.2789,1.2193,-9.6741,1.8551,7.1241,172.6359,0.0000,0.0000,0.0000,0.0000,0.0000,nothing
48156,-0.1557,0.0354,-0.0110,0.4633,1.2259,-9.7322,1.9400,7.1289,172.6093,0.0000,0.0000,0.0000,0.0000,0.0000,nothing
48272,-0.1915,0.0682,0.0867,0.3496,1.0565,-9.7268,1.9506,7.0357,172.6963,0.0000,0.0000,0.0000,0.0000,0.0000,nothing
48388,-0.1757,0.0600,-0.0477,0.1341,1.1918,-9.7735,1.8332,7.0274,172.7351,0.0000,0.0000,0.0000,0.0000,0.0000,nothing
48504,-0.1742,0.0462,-0.0305,0.0862,1.2444,-9.7280,1.7004,7.0538,172.7422,0.0000,0.0000,0.0000,0.0000,0.0000,nothing
48620,-0.1587,0.0976,-0.0086,0.5273,1.0349,-9.7663,1.8380,6.9524,172.8064,0.0000,0.0000,0.0000,0.0000,0.0000,nothing
48736,-0.1292,0.0447,-0.0290,0.2382,1.1708,-9.7184,1.7937,6.9440,172.8259,0.0000,0.0000,0.0000,0.0000,0.0000,nothing
48852,-0.1842,0.0465,0.0434,0.3029,1.1175,-9.6107,1.7936,6.9129,172.8560,0.0000,0.0000,0.0000,0.0000,0.0000,nothing
48968,-0.2099,0.0324,0.0068,0.4310,1.0493,-9.8184,1.8647,6.8305,172.9172,0.0000,0.0000,0.0000,0.0000,0.0000,nothing
49084,-0.0457,0.0397,-0.0709,0.4621,1.0619,-9.7340,1.9484,6.7694,172.9532,0.0000,0.0000,0.0000,0.0000,0.0000,nothing
49200,-0.1201,0.0552,0.0116,0.3101,1.2570,-9.7639,1.9339,6.8259,172.9029,0.0000,0.0000,0.0000,0.0000,0.0000,nothing
49316,-0.1513,0.0566,-0.0105,0.3454,1.2235,-9.7495,1.9418,6.8582,172.8697,0.0000,0.0000,0.0000,0.0000,0.0000,nothing
49432,-0.1947,0.0612,0.0485,0.2969,1.2408,-9.7681,1.9203,6.8961,172.8390,0.0000,0.0000,0.0000,0.0000,0.0000,nothing
49548,-0.2229,0.0836,0.0613,0.3508,1.2558,-9.7436,1.9328,6.9405,172.7929,0.0000,0.0000,0.0000,0.0000,0.0000,nothing
49664,-0.2018,0.0564,0.0619,0.2502,1.2157,-9.7849,1.8847,6.9545,172.7922,0.0000,0.0000,0.0000,0.0000,0.0000,nothing
49780,-0.1789,0.0570,-0.0314,0.3717,1.2253,-9.7190,1.9134,6.9771,172.7628,0.0000,0.0000,0.0000,0.0000,0.0000,nothing
49896,-0.2124,0.0594,-0.0162,0.3364,1.2869,-9.7956,1.9171,7.0277,172.7130,0.0000,0.0000,0.0000,0.0000,0.0000,nothing
50012,-0.2275,0.0485,0.0354,0.2454,1.2714,-9.7005,1.8693,7.0712,172.6835,0.0000,0.0000,0.0000,0.0000,0.0000,nothing
50128,-0.1737,0.0574,-0.0049,0.2029,1.2343,-9.7424,1.8008,7.0860,172.6865,0.0000,0.0000,0.0000,0.0000,0.0000,nothing
50244,-0.2323,0.0763,0.1016,0.2412,1.2289,-9.7370,1.7615,7.0965,172.6860,0.0000,0.0000,0.0000,0.0000,0.0000,nothing
50360,-0.1902,0.0459,-0.0053,0.3579,1.2055,-9.7178,1.7946,7.0935,172.6807,0.0000,0.0000,0.0000,0.0000,0.0000,nothing
50476,-0.2258,0.0731,0.0564,0.2640,1.2319,-9.7346,1.7693,7.1051,172.6757,0.0000,0.0000,0.0000,0.0000,0.0000,nothing
50592,-0.2455,0.0829,0.0684,0.3208,1.2570,-9.7232,1.7798,7.1308,172.6482,0.0000,0.0000,0.0000,0.0000,0.0000,nothing
50708,-0.2288,0.0991,0.0270,0.2849,1.1947,-9.7884,1.7672,7.1133,172.6683,0.0000,0.0000,0.0000,0.0000,0.0000,nothing
50824,-0.1937,0.0477,0.0339,0.2963,1.1666,-9.7322,1.7637,7.0852,172.6964,0.0000,0.0000,0.0000,0.0000,0.0000,nothing
50940,-0.1523,0.0513,0.0052,0.2855,1.1959,-9.7783,1.7533,7.0737,172.7101,0.0000,0.0000,0.0000,0.0000,0.0000,nothing
51056,-0.1746,0.0754,-0.0374,0.3280,1.2097,-9.7250,1.7696,7.0750,172.7048,0.0000,0.0000,0.0000,0.0000,0.0000,nothing
51172,-0.1408,0.0391,0.0455,0.3567,1.2223,-9.7436,1.8007,7.0820,172.6903,0.0000,0.0000,0.0000,0.0000,0.0000,nothing
51288,-0.2788,0.0443,0.0709,0.4106,1.3516,-9.8100,1.8586,7.1583,172.6019,0.0000,0.0000,0.0000,0.0000,0.0000,nothing
51404,-0.2984,0.0897,0.0196,0.2113,1.4396,-9.7058,1.7962,7.2857,172.4938,0.0000,0.0000,0.0000,0.0000,0.0000,nothing
51520,-0.3089,0.0945,0.0320,0.2789,1.0152,-9.7908,1.7789,7.1487,172.6311,0.0000,0.0000,0.0000,0.0000,0.0000,nothing
51636,-0.1138,0.0487,-0.0135,0.2406,1.0744,-9.7555,1.7416,7.0622,172.7241,0.0000,0.0000,0.0000,0.0000,0.0000,nothing
51752,-0.1096,0.0244,-0.0762,0.3472,1.1349,-9.7609,1.7698,7.0188,172.7594,0.0000,0.0000,0.0000,0.0000,0.0000,nothing
51868,-0.1868,0.0780,-0.0464,0.4106,1.3492,-9.7190,1.8324,7.1065,172.6587,0.0000,0.0000,0.0000,0.0000,0.0000,nothing
51984,-0.2432,0.0639,-0.0488,0.3418,1.2486,-9.7729,1.8479,7.1235,172.6383,0.0000,0.0000,0.0000,0.0000,0.0000,nothing
52100,-0.2294,0.0697,0.0776,0.2586,1.2331,-9.7118,1.8145,7.1345,172.6360,0.0000,0.0000,0.0000,0.0000,0.0000,nothing
52216,-0.2144,0.0604,-0.0825,0.5172,1.0948,-9.7513,1.9347,7.0609,172.6762,0.0000,0.0000,0.0000,0.0000,0.0000,nothing
52332,-0.1700,0.0778,0.0224,0.2167,1.2175,-9.7214,1.8681,7.0685,172.6864,0.0000,0.0000,0.0000,0.0000,0.0000,nothing
52448,-0.1947,0.0459,0.0318,0.2550,1.2253,-9.7513,1.8299,7.0776,172.6873,0.0000,0.0000,0.0000,0.0000,0.0000,nothing
52564,-0.1865,0.0938,0.0290,0.3879,1.1570,-9.6939,1.8742,7.0501,172.7026,0.0000,0.0000,0.0000,0.0000,0.0000,nothing
52680,-0.2387,0.0770,-0.0198,0.4064,1.2013,-9.7633,1.9235,7.0460,172.6936,0.0000,0.0000,0.0000,0.0000,0.0000,nothing
52796,-0.2121,0.0702,0.0249,0.2568,1.2576,-9.8100,1.8796,7.0719,172.6802,0.0000,0.0000,0.0000,0.0000,0.0000,nothing
52912,-0.1855,-0.0135,-0.0451,0.3843,1.1942,-9.7693,1.9153,7.0610,172.6813,0.0000,0.0000,0.0000,0.0000,0.0000,nothing
53028,-0.1836,0.0759,0.0022,0.3867,1.0906,-9.7370,1.9497,6.9937,172.7370,0.0000,0.0000,0.0000,0.0000,0.0000,nothing
53144,-0.2326,0.0972,0.0536,0.3699,1.3713,-9.7519,1.9699,7.0944,172.6344,0.0000,0.0000,0.0000,0.0000,0.0000,nothing
53260,-0.2661,0.0806,0.0434,0.2819,1.1552,-9.7663,1.9371,7.0593,172.6771,0.0000,0.0000,0.0000,0.0000,0.0000,nothing
53376,-0.2076,0.0755,-0.0134,0.3172,1.1564,-9.7286,1.9289,7.0310,172.7066,0.0000,0.0000,0.0000,0.0000,0.0000,nothing
53492,-0.1692,0.0612,-0.0095,0.2328,1.2019,-9.7573,1.8717,7.0300,172.7227,0.0000,0.0000,0.0000,0.0000,0.0000,nothing
53608,-0.1970,0.0393,0.0414,0.3675,1.1947,-9.7352,1.8991,7.0262,172.7192,0.0000,0.0000,0.0000,0.0000,0.0000,nothing
53724,-0.1755,0.0488,-0.0158,0.3292,1.2289,-9.7023,1.9019,7.0449,172.7003,0.0000,0.0000,0.0000,0.0000,0.0000,nothing
53840,-0.1705,0.0976,0.0217,0.3178,1.2037,-9.7214,1.8976,7.0459,172.7005,0.0000,0.0000,0.0000,0.0000,0.0000,nothing
53956,-0.1748,0.0731,0.0401,0.2239,1.2708,-9.7489,1.8382,7.0839,172.6792,0.0000,0.0000,0.0000,0.0000,0.0000,nothing
54072,-0.1926,0.0624,-0.0089,0.2658,1.2175,-9.7537,1.8092,7.0867,172.6837,0.0000,0.0000,0.0000,0.0000,0.0000,nothing
54188,-0.3497,0.1434,0.0199,0.7865,1.1738,-9.8184,2.0854,7.0581,172.6372,0.0000,0.0000,0.0000,0.0000,0.0000,nothing
54304,-0.2311,0.0703,0.0004,0.1754,1.3683,-9.7238,1.9793,7.1532,172.5752,0.0000,0.0000,0.0000,0.0000,0.0000,nothing
54420,-0.2523,0.0753,0.0292,0.3406,1.0984,-9.7519,1.9802,7.0802,172.6454,0.0000,0.0000,0.0000,0.0000,0.0000,nothing
54536,-0.2143,0.0766,-0.0040,0.2945,1.2750,-9.7501,1.9537,7.1169,172.6172,0.0000,0.0000,0.0000,0.0000,0.0000,nothing
54652,-0.1815,0.0785,-0.0116,0.4148,1.1373,-9.7166,2.0010,7.0723,172.6472,0.0000,0.0000,0.0000,0.0000,0.0000,nothing
54768,-0.1929,0.0270,-0.0577,0.2083,1.2067,-9.7465,1.9224,7.0708,172.6700,0.0000,0.0000,0.0000,0.0000,0.0000,nothing
54884,-0.1678,0.0784,-0.0131,0.3544,1.2331,-9.7382,1.9369,7.0849,172.6525,0.0000,0.0000,0.0000,0.0000,0.0000,nothing
55000,-0.1715,0.0688,0.0199,0.4118,1.1977,-9.7346,1.9836,7.0772,172.6473,0.0000,0.0000,0.0000,0.0000,0.0000,nothing
55116,-0.2064,0.0885,-0.0266,0.1658,1.2247,-9.7424,1.8820,7.0860,172.6658,0.0000,0.0000,0.0000,0.0000,0.0000,nothing
55232,-0.2015,0.0555,0.0086,0.3573,1.2031,-9.7711,1.9018,7.0789,172.6676,0.0000,0.0000,0.0000,0.0000,0.0000,nothing
55348,-0.1970,0.0702,-0.0660,0.4507,1.2277,-9.7208,1.9748,7.0901,172.6373,0.0000,0.0000,0.0000,0.0000,0.0000,nothing
55464,-0.2315,0.0517,0.0578,0.1556,1.2564,-9.7070,1.8688,7.1185,172.6378,0.0000,0.0000,0.0000,0.0000,0.0000,nothing
55580,-0.1891,0.0308,0.0249,0.2891,1.2588,-9.7082,1.8511,7.1450,172.6167,0.0000,0.0000,0.0000,0.0000,0.0000,nothing
55696,-0.2439,0.0803,-0.0025,0.4836,1.2384,-9.7669,1.9476,7.1524,172.5845,0.0000,0.0000,0.0000,0.0000,0.0000,nothing
55812,-0.2127,0.0743,0.0305,0.2233,1.2726,-9.7627,1.8826,7.1798,172.5750,0.0000,0.0000,0.0000,0.0000,0.0000,nothing
55928,-0.1490,-0.0172,0.0184,0.1658,1.2426,-9.6747,1.7923,7.1936,172.5842,0.0000,0.0000,0.0000,0.0000,0.0000,nothing
56044,-0.2607,0.0898,0.0337,0.3998,1.2432,-9.7483,1.8461,7.2004,172.5642,0.0000,0.0000,0.0000,0.0000,0.0000,nothing
56160,-0.1845,0.0679,-0.0005,0.2753,1.2738,-9.7250,1.8224,7.2263,172.5451,0.0000,0.0000,0.0000,0.0000,0.0000,nothing
56276,-0.1376,0.0568,-0.0609,0.3687,0.9709,-9.7849,1.8550,7.0696,172.6886,0.0000,0.0000,0.0000,0.0000,0.0000,nothing
56392,-0.2519,0.0672,0.0579,0.3603,1.3187,-9.7447,1.8794,7.1329,172.6212,0.0000,0.0000,0.0000,0.0000,0.0000,nothing
56508,-0.1565,0.0507,0.0229,0.2322,1.3785,-9.7220,1.8270,7.2264,172.5438,0.0000,0.0000,0.0000,0.0000,0.0000,nothing
56624,-0.1610,0.0603,0.0082,0.3454,1.0014,-9.7699,1.8458,7.0886,172.6726,0.0000,0.0000,0.0000,0.0000,0.0000,nothing
56740,-0.2129,0.1207,0.0472,0.3190,1.3971,-9.7340,1.8470,7.1962,172.5681,0.0000,0.0000,0.0000,0.0000,0.0000,nothing
56856,-0.2001,0.0523,-0.0326,0.3095,1.2241,-9.7220,1.8432,7.1939,172.5713,0.0000,0.0000,0.0000,0.0000,0.0000,nothing
56972,-0.2478,0.0946,0.0034,0.3376,1.1726,-9.7424,1.8559,7.1604,172.6005,0.0000,0.0000,0.0000,0.0000,0.0000,nothing
57088,-0.1790,0.0661,0.0233,0.3190,1.2582,-9.7340,1.8565,7.1805,172.5809,0.0000,0.0000,0.0000,0.0000,0.0000,nothing
57204,-0.2086,0.0727,-0.0166,0.3897,1.1983,-9.7424,1.8982,7.1631,172.5871,0.0000,0.0000,0.0000,0.0000,0.0000,nothing
57320,-0.1782,0.0521,0.0094,0.2640,1.2648,-9.7298,1.8625,7.1872,172.5729,0.0000,0.0000,0.0000,0.0000,0.0000,nothing
57436,-0.2215,0.0608,0.0342,0.4058,1.2199,-9.7124,1.9136,7.1838,172.5631,0.0000,0.0000,0.0000,0.0000,0.0000,nothing
57552,-0.2112,0.0663,0.0233,0.2310,1.2313,-9.7735,1.8564,7.1833,172.5783,0.0000,0.0000,0.0000,0.0000,0.0000,nothing
57668,-0.1962,0.0564,0.0177,0.3448,1.1834,-9.7244,1.8723,7.1584,172.5983,0.0000,0.0000,0.0000,0.0000,0.0000,nothing
57784,-0.1812,0.0578,0.0049,0.2777,1.2013,-9.7292,1.8474,7.1462,172.6165,0.0000,0.0000,0.0000,0.0000,0.0000,nothing
57900,-0.1609,0.0349,0.0346,0.3268,1.1786,-9.7507,1.8532,7.1204,172.6400,0.0000,0.0000,0.0000,0.0000,0.0000,nothing
58016,-0.1975,0.0605,0.0124,0.3328,1.2432,-9.7735,1.8614,7.1329,172.6258,0.0000,0.0000,0.0000,0.0000,0.0000,nothing
58132,-0.2105,0.0823,0.0142,0.3472,1.2438,-9.7346,1.8779,7.1473,172.6076,0.0000,0.0000,0.0000,0.0000,0.0000,nothing
58248,-0.2176,0.0530,-0.0116,0.3244,1.2085,-9.7561,1.8791,7.1383,172.6160,0.0000,0.0000,0.0000,0.0000,0.0000,nothing
58364,-0.1947,0.0627,0.0461,0.2795,1.2013,-9.7202,1.8547,7.1288,172.6315,0.0000,0.0000,0.0000,0.0000,0.0000,nothing
58480,-0.1704,0.0434,-0.0228,0.3502,1.2187,-9.7130,1.8741,7.1306,172.6248,0.0000,0.0000,0.0000,0.0000,0.0000,nothing
58596,-0.2243,0.0398,0.0872,0.3340,1.2642,-9.7148,1.8819,7.1585,172.5958,0.0000,0.0000,0.0000,0.0000,0.0000,nothing
58712,-0.2259,0.0887,-0.0811,0.3280,1.2582,-9.7262,1.8853,7.1793,172.5748,0.0000,0.0000,0.0000,0.0000,0.0000,nothing
58828,-0.2307,0.0503,0.0443,0.2909,1.1870,-9.7507,1.8664,7.1551,172.6030,0.0000,0.0000,0.0000,0.0000,0.0000,nothing
58944,-0.2195,0.0487,-0.0012,0.3178,1.1792,-9.7436,1.8652,7.1293,172.6283,0.0000,0.0000,0.0000,0.0000,0.0000,nothing
59060,-0.2195,0.0582,0.0369,0.2490,1.2193,-9.7531,1.8238,7.1287,172.6393,0.0000,0.0000,0.0000,0.0000,0.0000,nothing
59176,-0.2084,0.0556,-0.0579,0.3274,1.1977,-9.7436,1.8324,7.1163,172.6492,0.0000,0.0000,0.0000,0.0000,0.0000,nothing
59292,-0.2090,0.0598,0.0919,0.3562,1.2217,-9.7298,1.8572,7.1198,172.6395,0.0000,0.0000,0.0000,0.0000,0.0000,nothing
59408,-0.2082,0.0780,0.0532,0.3208,1.2055,-9.7376,1.8587,7.1132,172.6455,0.0000,0.0000,0.0000,0.0000,0.0000,nothing
59524,-0.1960,0.0733,0.0102,0.2879,1.2277,-9.7322,1.8410,7.1205,172.6429,0.0000,0.0000,0.0000,0.0000,0.0000,nothing
59640,-0.1806,0.0364,0.0496,0.3220,1.2073,-9.7011,1.8455,7.1175,172.6447,0.0000,0.0000,0.0000,0.0000,0.0000,nothing
59756,-0.1425,0.0678,0.0127,0.3125,1.2217,-9.7382,1.8433,7.1205,172.6424,0.0000,0.0000,0.0000,0.0000,0.0000,nothing
59872,-0.2159,0.0830,-0.0229,0.3669,1.2019,-9.7471,1.8730,7.1109,172.6441,0.0000,0.0000,0.0000,0.0000,0.0000,nothing
59988,-0.2263,0.0626,0.0209,0.3005,1.1792,-9.7250,1.8614,7.0909,172.6665,0.0000,0.0000,0.0000,0.0000,0.0000,nothing
60104,-0.2089,0.0777,-0.0001,0.3280,1.2073,-9.7801,1.8659,7.0851,172.6709,0.0000,0.0000,0.0000,0.0000,0.0000,nothing
60220,-0.1981,0.0466,0.1637,0.3250,1.1696,-9.7340,1.8692,7.0614,172.6929,0.0000,0.0000,0.0000,0.0000,0.0000,nothing
60336,-0.1875,0.0564,-0.0146,0.3562,1.2420,-9.7400,1.8900,7.0815,172.6681,0.0000,0.0000,0.0000,0.0000,0.0000,nothing
60452,-0.2132,0.0514,0.0179,0.2729,1.2325,-9.7142,1.8608,7.0961,172.6615,0.0000,0.0000,0.0000,0.0000,0.0000,nothing
60568,-0.1979,0.0568,-0.0109,0.3789,1.2013,-9.7573,1.8955,7.0879,172.6605,0.0000,0.0000,0.0000,0.0000,0.0000,nothing
60684,-0.2161,0.0612,0.0404,0.3376,1.2319,-9.6969,1.9037,7.1026,172.6442,0.0000,0.0000,0.0000,0.0000,0.0000,nothing
60800,-0.2176,0.0735,-0.0404,0.3035,1.2091,-9.7268,1.8907,7.1006,172.6495,0.0000,0.0000,0.0000,0.0000,0.0000,nothing
60916,-0.2164,0.0720,0.0499,0.3154,1.2498,-9.7178,1.8860,7.1230,172.6290,0.0000,0.0000,0.0000,0.0000,0.0000,nothing
61032,-0.1800,0.0598,-0.0678,0.2909,1.1912,-9.7459,1.8671,7.1072,172.6492,0.0000,0.0000,0.0000,0.0000,0.0000,nothing
61148,-0.1990,0.0712,-0.0194,0.2670,1.2061,-9.7418,1.8362,7.1020,172.6621,0.0000,0.0000,0.0000,0.0000,0.0000,nothing
61264,-0.1977,0.1021,0.0135,0.3963,1.2007,-9.7585,1.8835,7.0927,172.6590,0.0000,0.0000,0.0000,0.0000,0.0000,nothing
61380,-0.1816,0.0545,0.0492,0.2700,1.2313,-9.7453,1.8525,7.1033,172.6567,0.0000,0.0000,0.0000,0.0000,0.0000,nothing
61496,-0.2161,0.0753,-0.0115,0.3322,1.1804,-9.7717,1.8606,7.0813,172.6760,0.0000,0.0000,0.0000,0.0000,0.0000,nothing
61612,-0.2056,0.0384,0.0229,0.2532,1.1995,-9.7531,1.8221,7.0741,172.6927,0.0000,0.0000,0.0000,0.0000,0.0000,nothing
61728,-0.1881,0.0538,0.0138,0.3585,1.2456,-9.7567,1.8487,7.0938,172.6669,0.0000,0.0000,0.0000,0.0000,0.0000,nothing
61844,-0.1926,0.0717,-0.0105,0.3627,1.2199,-9.7543,1.8752,7.0968,172.6572,0.0000,0.0000,0.0000,0.0000,0.0000,nothing
61960,-0.1864,0.0669,0.0697,0.2789,1.2181,-9.7430,1.8504,7.0994,172.6610,0.0000,0.0000,0.0000,0.0000,0.0000,nothing
62076,-0.2134,0.0447,0.0143,0.3406,1.2187,-9.7358,1.8642,7.1026,172.6544,0.0000,0.0000,0.0000,0.0000,0.0000,nothing
62192,-0.2097,0.1013,-0.0252,0.2981,1.2103,-9.7310,1.8519,7.1010,172.6591,0.0000,0.0000,0.0000,0.0000,0.0000,nothing
62308,-0.2031,0.0517,0.0304,0.3406,1.1989,-9.7519,1.8652,7.0913,172.6650,0.0000,0.0000,0.0000,0.0000,0.0000,nothing
62424,-0.1909,0.0743,-0.0409,0.4417,1.2402,-9.7136,1.9369,7.1091,172.6292,0.0000,0.0000,0.0000,0.0000,0.0000,nothing
62540,-0.2076,0.0367,0.0269,0.1742,1.2301,-9.7370,1.8449,7.1181,172.6443,0.0000,0.0000,0.0000,0.0000,0.0000,nothing
62656,-0.2282,0.0498,0.0196,0.3262,1.2516,-9.7609,1.8503,7.1367,172.6249,0.0000,0.0000,0.0000,0.0000,0.0000,nothing
62772,-0.2387,0.0695,-0.0064,0.3430,1.1726,-9.7465,1.8654,7.1086,172.6483,0.0000,0.0000,0.0000,0.0000,0.0000,nothing
62888,-0.2151,0.0859,-0.0093,0.3328,1.1780,-9.7142,1.8736,7.0888,172.6653,0.0000,0.0000,0.0000,0.0000,0.0000,nothing
63004,-0.1689,0.0776,0.0487,0.3550,1.1690,-9.7471,1.8933,7.0634,172.6848,0.0000,0.0000,0.0000,0.0000,0.0000,nothing
63120,-0.1666,0.0855,0.0041,0.2849,1.2301,-9.7011,1.8710,7.0793,172.6752,0.0000,0.0000,0.0000,0.0000,0.0000,nothing
63236,-0.1959,0.0541,-0.0123,0.3352,1.2331,-9.7316,1.8796,7.0931,172.6596,0.0000,0.0000,0.0000,0.0000,0.0000,nothing
63352,-0.2174,0.0708,0.0019,0.3125,1.2504,-9.7094,1.8744,7.1172,172.6376,0.0000,0.0000,0.0000,0.0000,0.0000,nothing
63468,-0.2019,0.0509,0.0233,0.1443,1.1888,-9.7232,1.7715,7.1026,172.6776,0.0000,0.0000,0.0000,0.0000,0.0000,nothing
63584,-0.2041,0.0702,0.0194,0.3777,1.2337,-9.6897,1.8157,7.1173,172.6524,0.0000,0.0000,0.0000,0.0000,0.0000,nothing
63700,-0.2008,0.0709,-0.0044,0.2520,1.2343,-9.7412,1.7811,7.1275,172.6511,0.0000,0.0000,0.0000,0.0000,0.0000,nothing
63816,-0.1834,0.0374,0.0428,0.3472,1.2372,-9.7124,1.8060,7.1402,172.6326,0.0000,0.0000,0.0000,0.0000,0.0000,nothing
63932,-0.1902,0.0435,-0.0245,0.2825,1.2241,-9.7400,1.7902,7.1422,172.6345,0.0000,0.0000,0.0000,0.0000,0.0000,nothing
64048,-0.2157,0.0866,0.0419,0.3196,1.1942,-9.7436,1.7977,7.1263,172.6481,0.0000,0.0000,0.0000,0.0000,0.0000,nothing
64164,-0.1611,0.0643,0.0327,0.2592,1.2205,-9.7430,1.7691,7.1275,172.6540,0.0000,0.0000,0.0000,0.0000,0.0000,nothing
64280,-0.1921,0.0453,0.0390,0.3071,1.2325,-9.7304,1.7715,7.1363,172.6449,0.0000,0.0000,0.0000,0.0000,0.0000,nothing
64396,-0.2108,0.0451,-0.0064,0.2933,1.1959,-9.7825,1.7648,7.1193,172.6631,0.0000,0.0000,0.0000,0.0000,0.0000,nothing
64512,-0.1858,0.0853,0.0254,0.3807,1.1115,-9.7717,1.8101,7.0557,172.7135,0.0000,0.0000,0.0000,0.0000,0.0000,nothing
64628,-0.1475,0.0404,-0.0191,0.2592,1.2151,-9.7489,1.7802,7.0603,172.7165,0.0000,0.0000,0.0000,0.0000,0.0000,nothing
64744,-0.2219,0.0514,-0.0425,0.1179,1.3641,-9.7232,1.6710,7.1530,172.6524,0.0000,0.0000,0.0000,0.0000,0.0000,nothing
64860,-0.2248,0.0871,0.0837,0.2646,1.3031,-9.7537,1.6579,7.1985,172.6111,0.0000,0.0000,0.0000,0.0000,0.0000,nothing
64976,-0.2365,0.0697,-0.0210,0.4908,1.1714,-9.7735,1.7779,7.1613,172.6191,0.0000,0.0000,0.0000,0.0000,0.0000,nothing
65092,-0.2514,0.0634,-0.0059,0.2388,1.2253,-9.7370,1.7396,7.1622,172.6274,0.0000,0.0000,0.0000,0.0000,0.0000,nothing
65208,-0.2181,0.0881,-0.0007,0.1478,1.1930,-9.7094,1.6526,7.1465,172.6630,0.0000,0.0000,0.0000,0.0000,0.0000,nothing
65324,-0.1749,0.0440,0.0499,0.3975,1.1241,-9.7232,1.7197,7.0909,172.7015,0.0000,0.0000,0.0000,0.0000,0.0000,nothing
65440,-0.2061,0.0236,-0.0770,0.3891,1.1127,-9.8046,1.7738,7.0285,172.7489,0.0000,0.0000,0.0000,0.0000,0.0000,nothing
65556,-0.1666,0.0623,-0.0102,0.2143,1.2265,-9.7034,1.7221,7.0458,172.7447,0.0000,0.0000,0.0000,0.0000,0.0000,nothing
65672,-0.1930,0.0717,-0.0727,0.2574,1.1750,-9.7615,1.6998,7.0274,172.7680,0.0000,0.0000,0.0000,0.0000,0.0000,nothing
65788,-0.1899,0.0510,0.0270,0.3430,1.2241,-9.7340,1.7301,7.0409,172.7475,0.0000,0.0000,0.0000,0.0000,0.0000,nothing
65904,-0.2236,0.0519,0.0189,0.1903,1.2408,-9.7974,1.6672,7.0586,172.7452,0.0000,0.0000,0.0000,0.0000,0.0000,nothing
66020,-0.1800,0.0334,0.0119,0.2879,1.1277,-9.7118,1.6691,7.0150,172.7872,0.0000,0.0000,0.0000,0.0000,0.0000,nothing
66136,-0.1583,0.0619,0.0429,0.2861,1.2109,-9.7178,1.6696,7.0235,172.7789,0.0000,0.0000,0.0000,0.0000,0.0000,nothing
66252,-0.1755,0.0849,0.0184,0.3933,1.2193,-9.7459,1.7319,7.0337,172.7541,0.0000,0.0000,0.0000,0.0000,0.0000,nothing
66368,-0.1626,0.0788,0.0404,0.3861,1.3222,-9.7364,1.7838,7.1032,172.6740,0.0000,0.0000,0.0000,0.0000,0.0000,nothing
66484,-0.2256,0.0682,-0.0337,0.3160,1.4234,-9.6424,1.7912,7.2314,172.5478,0.0000,0.0000,0.0000,0.0000,0.0000,nothing
66600,-0.3161,0.0920,0.0776,0.4328,1.2528,-9.7268,1.8647,7.2415,172.5198,0.0000,0.0000,0.0000,0.0000,0.0000,nothing
66716,-0.2687,0.0693,0.0567,0.2580,1.1828,-9.7657,1.8284,7.2076,172.5617,0.0000,0.0000,0.0000,0.0000,0.0000,nothing
66832,-0.2439,0.0645,-0.0316,0.3131,1.1343,-9.7507,1.8282,7.1500,172.6176,0.0000,0.0000,0.0000,0.0000,0.0000,nothing
66948,-0.1408,0.0784,-0.0004,0.2478,1.2169,-9.7262,1.7903,7.1480,172.6290,0.0000,0.0000,0.0000,0.0000,0.0000,nothing
67064,-0.1890,0.0753,0.0267,0.4082,1.2546,-9.7495,1.8492,7.1659,172.5970,0.0000,0.0000,0.0000,0.0000,0.0000,nothing
67180,-0.1712,0.0503,-0.0462,0.3166,1.2666,-9.7154,1.8494,7.1916,172.5720,0.0000,0.0000,0.0000,0.0000,0.0000,nothing
67296,-0.2046,0.1050,0.0120,0.3160,1.2720,-9.7424,1.8487,7.2159,172.5486,0.0000,0.0000,0.0000,0.0000,0.0000,nothing
67412,-0.2315,0.0631,0.0314,0.3250,1.2355,-9.7442,1.8533,7.2165,172.5468,0.0000,0.0000,0.0000,0.0000,0.0000,nothing
67528,-0.1949,0.0413,0.0318,0.3388,1.1517,-9.7256,1.8661,7.1699,172.5888,0.0000,0.0000,0.0000,0.0000,0.0000,nothing
67644,-0.2104,0.0691,0.0528,0.2400,1.2432,-9.7537,1.8193,7.1791,172.5916,0.0000,0.0000,0.0000,0.0000,0.0000,nothing
67760,-0.2116,0.0753,0.0173,0.2999,1.2013,-9.7597,1.8120,7.1626,172.6094,0.0000,0.0000,0.0000,0.0000,0.0000,nothing
67876,-0.2132,0.0638,-0.0386,0.3478,1.1804,-9.7549,1.8335,7.1358,172.6300,0.0000,0.0000,0.0000,0.0000,0.0000,nothing
67992,-0.1853,0.0702,0.0432,0.3244,1.2289,-9.7370,1.8395,7.1411,172.6234,0.0000,0.0000,0.0000,0.0000,0.0000,nothing
68108,-0.2120,0.0971,-0.0479,0.3083,1.2013,-9.7507,1.8353,7.1290,172.6361,0.0000,0.0000,0.0000,0.0000,0.0000,nothing
68224,-0.1975,0.0713,0.0323,0.2263,1.2331,-9.7292,1.7840,7.1383,172.6399,0.0000,0.0000,0.0000,0.0000,0.0000,nothing
68340,-0.1956,0.0773,-0.0507,0.3591,1.2001,-9.7597,1.8148,7.1250,172.6452,0.0000,0.0000,0.0000,0.0000,0.0000,nothing
68456,-0.1967,0.0432,0.0207,0.3011,1.2396,-9.7226,1.8093,7.1387,172.6333,0.0000,0.0000,0.0000,0.0000,0.0000,nothing
68572,-0.2059,0.0958,0.0353,0.3071,1.2253,-9.7124,1.8080,7.1435,172.6289,0.0000,0.0000,0.0000,0.0000,0.0000,nothing
68688,-0.2221,0.0453,-0.0284,0.2993,1.2199,-9.7394,1.8019,7.1428,172.6312,0.0000,0.0000,0.0000,0.0000,0.0000,nothing
68804,-0.2157,0.0513,0.0420,0.3615,1.2103,-9.7220,1.8330,7.1377,172.6284,0.0000,0.0000,0.0000,0.0000,0.0000,nothing
68920,-0.1936,0.0543,0.0067,0.3125,1.2235,-9.7567,1.8317,7.1383,172.6281,0.0000,0.0000,0.0000,0.0000,0.0000,nothing
69036,-0.1899,0.0500,-0.0237,0.3184,1.2295,-9.7741,1.8337,7.1410,172.6249,0.0000,0.0000,0.0000,0.0000,0.0000,nothing
69152,-0.2282,0.0687,0.0761,0.3214,1.2115,-9.7286,1.8381,7.1364,172.6283,0.0000,0.0000,0.0000,0.0000,0.0000,nothing
69268,-0.1963,0.0586,-0.0538,0.2813,1.2492,-9.7561,1.8181,7.1522,172.6180,0.0000,0.0000,0.0000,0.0000,0.0000,nothing
69384,-0.1816,0.0747,0.0204,0.3190,1.0762,-9.7543,1.8225,7.0663,172.7002,0.0000,0.0000,0.0000,0.0000,0.0000,nothing
69500,-0.2168,0.0714,0.0653,0.3220,1.2025,-9.7154,1.8286,7.0649,172.7000,0.0000,0.0000,0.0000,0.0000,0.0000,nothing
69616,-0.2060,0.0829,-0.0018,0.3196,1.2103,-9.7453,1.8322,7.0660,172.6980,0.0000,0.0000,0.0000,0.0000,0.0000,nothing
69732,-0.2191,0.0654,0.0222,0.2951,1.2127,-9.7304,1.8214,7.0694,172.6974,0.0000,0.0000,0.0000,0.0000,0.0000,nothing
69848,-0.2209,0.0807,-0.0053,0.3340,1.2265,-9.7585,1.8337,7.0785,172.6855,0.0000,0.0000,0.0000,0.0000,0.0000,nothing
69964,-0.2215,0.0784,-0.0318,0.3418,1.2115,-9.7394,1.8498,7.0793,172.6806,0.0000,0.0000,0.0000,0.0000,0.0000,nothing
70080,-0.2142,0.0540,0.0130,0.3544,1.2007,-9.7358,1.8717,7.0740,172.6801,0.0000,0.0000,0.0000,0.0000,0.0000,nothing
70196,-0.1862,0.0428,0.0346,0.3143,1.2408,-9.8028,1.8667,7.0877,172.6682,0.0000,0.0000,0.0000,0.0000,0.0000,nothing
70312,-0.1884,0.1047,0.0124,0.2819,1.2115,-9.7519,1.8443,7.0868,172.6747,0.0000,0.0000,0.0000,0.0000,0.0000,nothing
70428,-0.1914,0.0735,0.0420,0.3029,1.2103,-9.7244,1.8369,7.0873,172.6762,0.0000,0.0000,0.0000,0.0000,0.0000,nothing
70544,-0.1949,0.0695,-0.0195,0.2927,1.2211,-9.7753,1.8234,7.0903,172.6767,0.0000,0.0000,0.0000,0.0000,0.0000,nothing
70660,-0.1907,0.0905,0.0382,0.3436,1.2121,-9.7304,1.8417,7.0909,172.6715,0.0000,0.0000,0.0000,0.0000,0.0000,nothing
70776,-0.1887,0.0682,-0.0297,0.3095,1.2019,-9.7603,1.8378,7.0835,172.6797,0.0000,0.0000,0.0000,0.0000,0.0000,nothing
70892,-0.2089,0.0930,0.0847,0.2885,1.2247,-9.7507,1.8222,7.0907,172.6766,0.0000,0.0000,0.0000,0.0000,0.0000,nothing
71008,-0.2059,0.0931,-0.0215,0.3538,1.1942,-9.7705,1.8458,7.0780,172.6829,0.0000,0.0000,0.0000,0.0000,0.0000,nothing
71124,-0.2060,0.0409,0.0327,0.3286,1.2097,-9.7394,1.8530,7.0778,172.6813,0.0000,0.0000,0.0000,0.0000,0.0000,nothing
71240,-0.2086,0.0694,-0.0335,0.2939,1.1983,-9.7268,1.8395,7.0721,172.6903,0.0000,0.0000,0.0000,0.0000,0.0000,nothing
71356,-0.1900,0.0581,0.0225,0.2873,1.2193,-9.7028,1.8239,7.0808,172.6858,0.0000,0.0000,0.0000,0.0000,0.0000,nothing
71472,-0.1977,0.0562,0.0080,0.4022,1.1648,-9.7615,1.8759,7.0526,172.6998,0.0000,0.0000,0.0000,0.0000,0.0000,nothing
71588,-0.1917,0.0349,0.0029,0.3466,1.2277,-9.7406,1.8905,7.0652,172.6837,0.0000,0.0000,0.0000,0.0000,0.0000,nothing
71704,-0.1910,0.0543,0.0164,0.3370,1.2259,-9.7208,1.8984,7.0770,172.6703,0.0000,0.0000,0.0000,0.0000,0.0000,nothing
71820,-0.1996,0.0746,0.0976,0.3011,1.2564,-9.7274,1.8844,7.1049,172.6470,0.0000,0.0000,0.0000,0.0000,0.0000,nothing
71936,-0.1802,0.0577,-0.0034,0.3172,1.1816,-9.7328,1.8813,7.0863,172.6658,0.0000,0.0000,0.0000,0.0000,0.0000,nothing
72052,-0.1800,0.0371,0.0525,0.2849,1.2307,-9.7477,1.8593,7.0969,172.6612,0.0000,0.0000,0.0000,0.0000,0.0000,nothing
72168,-0.1978,0.0810,0.0015,0.3334,1.2055,-9.7729,1.8673,7.0900,172.6658,0.0000,0.0000,0.0000,0.0000,0.0000,nothing
72284,-0.1917,0.0716,0.0119,0.1628,1.2133,-9.7400,1.7756,7.0911,172.6878,0.0000,0.0000,0.0000,0.0000,0.0000,nothing
72400,-0.2033,0.0724,0.0225,0.4549,1.2013,-9.7418,1.8635,7.0843,172.6723,0.0000,0.0000,0.0000,0.0000,0.0000,nothing
72516,-0.2099,0.0507,0.0500,0.3556,1.2061,-9.7651,1.8841,7.0795,172.6716,0.0000,0.0000,0.0000,0.0000,0.0000,nothing
72632,-0.1839,0.0649,-0.0045,0.3107,1.2115,-9.7316,1.8771,7.0808,172.6721,0.0000,0.0000,0.0000,0.0000,0.0000,nothing
72748,-0.2004,0.0776,-0.0046,0.3011,1.2762,-9.7148,1.8655,7.1207,172.6366,0.0000,0.0000,0.0000,0.0000,0.0000,nothing
72864,-0.2065,0.0742,-0.0232,0.3675,1.2522,-9.7543,1.8930,7.1397,172.6111,0.0000,0.0000,0.0000,0.0000,0.0000,nothing
72980,-0.2164,0.1303,-0.0102,0.3873,1.1612,-9.7537,1.9295,7.1041,172.6359,0.0000,0.0000,0.0000,0.0000,0.0000,nothing
73096,-0.2210,0.0818,0.0593,0.2981,1.1900,-9.7663,1.9101,7.0880,172.6566,0.0000,0.0000,0.0000,0.0000,0.0000,nothing
73212,-0.2038,0.0533,-0.0379,0.2927,1.2157,-9.7579,1.8895,7.0891,172.6609,0.0000,0.0000,0.0000,0.0000,0.0000,nothing
73328,-0.2195,0.0544,0.0320,0.2801,1.2420,-9.7268,1.8643,7.1075,172.6496,0.0000,0.0000,0.0000,0.0000,0.0000,nothing
73444,-0.2320,0.0458,-0.0138,0.4124,1.2863,-9.7064,1.9189,7.1509,172.5935,0.0000,0.0000,0.0000,0.0000,0.0000,nothing
73560,-0.2042,0.0703,0.0251,0.2598,1.2121,-9.7208,1.8790,7.1464,172.6082,0.0000,0.0000,0.0000,0.0000,0.0000,nothing
73676,-0.2240,0.0852,0.0329,0.3544,1.2067,-9.7196,1.8983,7.1390,172.6104,0.0000,0.0000,0.0000,0.0000,0.0000,nothing
73792,-0.1797,0.0622,0.0061,0.3322,1.2139,-9.7789,1.9015,7.1323,172.6160,0.0000,0.0000,0.0000,0.0000,0.0000,nothing
73908,-0.2262,0.0701,0.0188,0.2939,1.2199,-9.7274,1.8831,7.1336,172.6196,0.0000,0.0000,0.0000,0.0000,0.0000,nothing
74024,-0.2121,0.0941,0.0326,0.3430,1.2325,-9.7579,1.8946,7.1396,172.6107,0.0000,0.0000,0.0000,0.0000,0.0000,nothing
74140,-0.2239,0.0739,0.0165,0.3316,1.2420,-9.7382,1.8986,7.1521,172.5977,0.0000,0.0000,0.0000,0.0000,0.0000,nothing
74256,-0.2001,0.0612,0.0312,0.2735,1.2031,-9.7759,1.8677,7.1382,172.6190,0.0000,0.0000,0.0000,0.0000,0.0000,nothing
74372,-0.2199,0.0548,-0.0479,0.3597,1.2307,-9.7418,1.8908,7.1439,172.6076,0.0000,0.0000,0.0000,0.0000,0.0000,nothing
74488,-0.2109,0.0641,0.0136,0.2879,1.2139,-9.7591,1.8693,7.1382,172.6186,0.0000,0.0000,0.0000,0.0000,0.0000,nothing
74604,-0.2050,0.0481,0.0443,0.3376,1.2372,-9.7795,1.8786,7.1451,172.6096,0.0000,0.0000,0.0000,0.0000,0.0000,nothing
74720,-0.2109,0.0563,0.0218,0.2688,1.2253,-9.7370,1.8476,7.1475,172.6151,0.0000,0.0000,0.0000,0.0000,0.0000,nothing
74836,-0.1905,0.0509,0.0121,0.3418,1.2133,-9.7531,1.8621,7.1415,172.6173,0.0000,0.0000,0.0000,0.0000,0.0000,nothing
74952,-0.1996,0.0714,-0.0830,0.3125,1.2474,-9.7358,1.8582,7.1571,172.6032,0.0000,0.0000,0.0000,0.0000,0.0000,nothing
75068,-0.1921,0.0528,0.0000,0.3633,1.2229,-9.7561,1.8840,7.1553,172.5983,0.0000,0.0000,0.0000,0.0000,0.0000,nothing
75184,-0.2164,0.0642,0.0447,0.3220,1.2307,-9.7023,1.8842,7.1623,172.5915,0.0000,0.0000,0.0000,0.0000,0.0000,nothing
75300,-0.2123,0.0761,-0.0653,0.2813,1.2259,-9.7268,1.8602,7.1641,172.5959,0.0000,0.0000,0.0000,0.0000,0.0000,nothing
75416,-0.2080,0.0954,-0.0420,0.3579,1.1906,-9.7298,1.8833,7.1448,172.6086,0.0000,0.0000,0.0000,0.0000,0.0000,nothing
75532,-0.2172,0.0776,-0.0322,0.3364,1.2205,-9.7621,1.8908,7.1426,172.6089,0.0000,0.0000,0.0000,0.0000,0.0000,nothing
75648,-0.2215,0.1104,0.0417,0.2951,1.1930,-9.7483,1.8738,7.1257,172.6296,0.0000,0.0000,0.0000,0.0000,0.0000,nothing
75764,-0.2161,0.0577,0.0697,0.3562,1.2085,-9.7465,1.8941,7.1195,172.6303,0.0000,0.0000,0.0000,0.0000,0.0000,nothing
75880,-0.1934,0.0593,-0.0379,0.2394,1.2301,-9.7400,1.8444,7.1271,172.6357,0.0000,0.0000,0.0000,0.0000,0.0000,nothing
75996,-0.2008,0.0729,0.0945,0.3651,1.2223,-9.7364,1.8731,7.1295,172.6261,0.0000,0.0000,0.0000,0.0000,0.0000,nothing
76112,-0.1804,0.0628,-0.0646,0.3567,1.2145,-9.7621,1.8935,7.1252,172.6250,0.0000,0.0000,0.0000,0.0000,0.0000,nothing
76228,-0.1793,0.0729,0.0365,0.2885,1.2115,-9.7424,1.8725,7.1212,172.6342,0.0000,0.0000,0.0000,0.0000,0.0000,nothing
76344,-0.1977,0.0626,-0.0109,0.3657,1.2349,-9.7687,1.8980,7.1291,172.6200,0.0000,0.0000,0.0000,0.0000,0.0000,nothing
76460,-0.2305,0.0526,-0.0164,0.3382,1.2355,-9.6981,1.9063,7.1417,172.6057,0.0000,0.0000,0.0000,0.0000,0.0000,nothing
76576,-0.1891,0.0701,0.0012,0.3364,1.2564,-9.7316,1.9120,7.1627,172.5839,0.0000,0.0000,0.0000,0.0000,0.0000,nothing
76692,-0.2120,0.0736,-0.0120,0.3496,1.2121,-9.7591,1.9244,7.1540,172.5891,0.0000,0.0000,0.0000,0.0000,0.0000,nothing
76808,-0.1866,0.0747,0.0000,0.2712,1.2343,-9.7052,1.8909,7.1631,172.5891,0.0000,0.0000,0.0000,0.0000,0.0000,nothing
76924,-0.2063,0.0626,0.0266,0.3029,1.2307,-9.7477,1.8783,7.1660,172.5894,0.0000,0.0000,0.0000,0.0000,0.0000,nothing
77040,-0.2313,0.0718,-0.0087,0.3131,1.2414,-9.7651,1.8726,7.1735,172.5836,0.0000,0.0000,0.0000,0.0000,0.0000,nothing
77156,-0.1789,0.0615,-0.0498,0.3107,1.2462,-9.7244,1.8669,7.1861,172.5729,0.0000,0.0000,0.0000,0.0000,0.0000,nothing
77272,-0.2089,0.0708,0.0419,0.2753,1.2043,-9.7142,1.8414,7.1740,172.5911,0.0000,0.0000,0.0000,0.0000,0.0000,nothing
77388,-0.2023,0.0768,-0.0290,0.3298,1.2073,-9.7663,1.8492,7.1609,172.6018,0.0000,0.0000,0.0000,0.0000,0.0000,nothing
77504,-0.2116,0.0652,0.0515,0.2712,1.2199,-9.7214,1.8229,7.1597,172.6095,0.0000,0.0000,0.0000,0.0000,0.0000,nothing
77620,-0.2170,0.0522,0.0038,0.3406,1.2337,-9.7633,1.8388,7.1635,172.6018,0.0000,0.0000,0.0000,0.0000,0.0000,nothing
77736,-0.2334,0.0638,0.0149,0.3065,1.2085,-9.7268,1.8341,7.1551,172.6112,0.0000,0.0000,0.0000,0.0000,0.0000,nothing
77852,-0.1779,0.0421,0.0188,0.3029,1.1888,-9.7537,1.8272,7.1341,172.6333,0.0000,0.0000,0.0000,0.0000,0.0000,nothing
77968,-0.1652,0.0545,-0.0254,0.3382,1.2396,-9.7292,1.8420,7.1464,172.6177,0.0000,0.0000,0.0000,0.0000,0.0000,nothing
78084,-0.2031,0.0643,-0.0213,0.3107,1.2624,-9.7717,1.8383,7.1675,172.5981,0.0000,0.0000,0.0000,0.0000,0.0000,nothing
78200,-0.2144,0.0750,0.0153,0.3651,1.2037,-9.7471,1.8674,7.1543,172.6035,0.0000,0.0000,0.0000,0.0000,0.0000,nothing
78316,-0.2234,0.0829,0.0237,0.2676,1.2301,-9.7244,1.8371,7.1595,172.6061,0.0000,0.0000,0.0000,0.0000,0.0000,nothing
78432,-0.2056,0.0419,0.0060,0.3861,1.1654,-9.7268,1.8790,7.1264,172.6276,0.0000,0.0000,0.0000,0.0000,0.0000,nothing
78548,-0.1993,0.0667,0.0330,0.3166,1.2343,-9.7334,1.8760,7.1360,172.6190,0.0000,0.0000,0.0000,0.0000,0.0000,nothing
78664,-0.2323,0.0383,-0.0229,0.3292,1.1810,-9.7573,1.8802,7.1121,172.6410,0.0000,0.0000,0.0000,0.0000,0.0000,nothing
78780,-0.2099,0.0434,0.0278,0.2203,1.2462,-9.7094,1.8213,7.1321,172.6367,0.0000,0.0000,0.0000,0.0000,0.0000,nothing
78896,-0.2125,0.0635,0.0409,0.3915,1.1798,-9.7639,1.8672,7.1073,172.6491,0.0000,0.0000,0.0000,0.0000,0.0000,nothing
79012,-0.2112,0.0643,-0.0097,0.2436,1.2349,-9.7477,1.8225,7.1184,172.6497,0.0000,0.0000,0.0000,0.0000,0.0000,nothing
79128,-0.1929,0.0751,-0.0451,0.3250,1.1708,-9.7711,1.8294,7.0894,172.6760,0.0000,0.0000,0.0000,0.0000,0.0000,nothing
79244,-0.1730,0.0489,0.0309,0.3579,1.1032,-9.7124,1.8561,7.0282,172.7284,0.0000,0.0000,0.0000,0.0000,0.0000,nothing
79360,-0.1774,0.0725,-0.0147,0.3011,1.2390,-9.7645,1.8457,7.0483,172.7117,0.0000,0.0000,0.0000,0.0000,0.0000,nothing
79476,-0.2091,0.0740,0.0327,0.3579,1.2157,-9.7220,1.8703,7.0558,172.6981,0.0000,0.0000,0.0000,0.0000,0.0000,nothing
79592,-0.2022,0.0395,-0.0322,0.2610,1.2606,-9.7382,1.8355,7.0875,172.6763,0.0000,0.0000,0.0000,0.0000,0.0000,nothing
79708,-0.1945,0.0657,-0.0048,0.3424,1.2247,-9.7603,1.8513,7.0935,172.6665,0.0000,0.0000,0.0000,0.0000,0.0000,nothing
79824,-0.1819,0.0693,0.0307,0.3460,1.2253,-9.7388,1.8681,7.1008,172.6551,0.0000,0.0000,0.0000,0.0000,0.0000,nothing
79940,-0.1566,0.0631,-0.0374,0.2951,1.1906,-9.7549,1.8532,7.0863,172.6730,0.0000,0.0000,0.0000,0.0000,0.0000,nothing
80056,-0.1703,0.0586,0.0023,0.3472,1.2211,-9.7322,1.8706,7.0923,172.6627,0.0000,0.0000,0.0000,0.0000,0.0000,nothing
80172,-0.2008,0.0712,0.0324,0.2801,1.2558,-9.7561,1.8466,7.1163,172.6456,0.0000,0.0000,0.0000,0.0000,0.0000,nothing
80288,-0.1834,0.0693,-0.0693,0.2035,1.0756,-9.7376,1.7812,7.0351,172.7407,0.0000,0.0000,0.0000,0.0000,0.0000,nothing
80404,-0.1978,0.0799,-0.0147,0.3998,1.1900,-9.8327,1.8347,7.0210,172.7409,0.0000,0.0000,0.0000,0.0000,0.0000,nothing
80520,-0.2706,0.0345,-0.0315,0.2454,1.1433,-9.7920,1.7937,6.9846,172.7866,0.0000,0.0000,0.0000,0.0000,0.0000,nothing
80636,-0.1810,0.0656,0.0011,0.2987,1.2438,-9.7418,1.7885,7.0134,172.7600,0.0000,0.0000,0.0000,0.0000,0.0000,nothing
80752,-0.1865,0.0652,0.0663,0.3262,1.2600,-9.7011,1.8006,7.0515,172.7200,0.0000,0.0000,0.0000,0.0000,0.0000,nothing
80868,-0.1969,0.0872,-0.0604,0.3496,1.2271,-9.7220,1.8248,7.0652,172.7006,0.0000,0.0000,0.0000,0.0000,0.0000,nothing
80984,-0.2174,0.0596,0.0230,0.2682,1.1846,-9.7328,1.7990,7.0524,172.7195,0.0000,0.0000,0.0000,0.0000,0.0000,nothing
81100,-0.1945,0.0532,-0.0228,0.3059,1.2043,-9.7801,1.7969,7.0488,172.7235,0.0000,0.0000,0.0000,0.0000,0.0000,nothing
81216,-0.1933,0.0781,0.0669,0.2933,1.2097,-9.7567,1.7881,7.0504,172.7242,0.0000,0.0000,0.0000,0.0000,0.0000,nothing
81332,-0.1738,0.0683,-0.0104,0.2921,1.2289,-9.7358,1.7798,7.0644,172.7126,0.0000,0.0000,0.0000,0.0000,0.0000,nothing
81448,-0.2063,0.0338,-0.0258,0.3502,1.2343,-9.7537,1.8058,7.0787,172.6923,0.0000,0.0000,0.0000,0.0000,0.0000,nothing
81564,-0.1738,0.0541,-0.0585,0.3298,1.2055,-9.7166,1.8181,7.0777,172.6902,0.0000,0.0000,0.0000,0.0000,0.0000,nothing
81680,-0.2108,0.0654,-0.1168,0.3508,1.2462,-9.7561,1.8406,7.0975,172.6654,0.0000,0.0000,0.0000,0.0000,0.0000,nothing
81796,-0.2144,0.0973,-0.0414,0.4004,1.2031,-9.7256,1.8905,7.0924,172.6575,0.0000,0.0000,0.0000,0.0000,0.0000,nothing
81912,-0.1767,0.0592,-0.0417,0.4549,1.0685,-9.7621,1.9667,7.0071,172.7195,0.0000,0.0000,0.0000,0.0000,0.0000,nothing
82028,-0.1193,0.0207,-0.0556,0.0090,1.2468,-9.7699,1.7749,7.0340,172.7433,0.0000,0.0000,0.0000,0.0000,0.0000,nothing
82144,-0.1476,0.0589,0.0393,0.1796,1.0230,-9.8303,1.7011,6.9241,172.8680,0.0000,0.0000,0.0000,0.0000,0.0000,nothing
82260,0.0259,-0.0338,-0.0117,0.5818,0.7638,-9.8250,1.8696,6.6749,173.0659,0.0000,0.0000,0.0000,0.0000,0.0000,nothing
82376,-0.1076,0.0279,0.0214,0.2885,1.4982,-9.7465,1.8503,6.8814,172.8718,0.0000,0.0000,0.0000,0.0000,0.0000,nothing
82492,-0.2398,0.0799,0.0808,0.2077,1.3228,-9.6633,1.7878,6.9720,172.8003,0.0000,0.0000,0.0000,0.0000,0.0000,nothing
82608,-0.1785,0.0882,-0.0035,0.5160,1.1816,-9.7310,1.9101,6.9663,172.7741,0.0000,0.0000,0.0000,0.0000,0.0000,nothing
82724,-0.3724,0.1546,0.0440,0.1185,1.5419,-9.8878,1.7850,7.1592,172.6194,0.0000,0.0000,0.0000,0.0000,0.0000,nothing
82840,-0.2350,0.1193,0.1275,-0.0850,1.2594,-9.5987,1.5597,7.1907,172.6403,0.0000,0.0000,0.0000,0.0000,0.0000,nothing
82956,-0.1341,0.0777,0.0359,0.4657,1.1056,-9.7274,1.6758,7.1197,172.6838,0.0000,0.0000,0.0000,0.0000,0.0000,nothing
83072,-0.1735,0.0132,-0.0491,0.3747,1.1115,-9.7633,1.7266,7.0567,172.7330,0.0000,0.0000,0.0000,0.0000,0.0000,nothing
83188,-0.2318,0.0684,-0.0383,0.2071,1.4240,-9.7370,1.6745,7.1831,172.6223,0.0000,0.0000,0.0000,0.0000,0.0000,nothing
83304,-0.2313,0.0939,0.0548,0.3041,1.3498,-9.6484,1.6858,7.2602,172.5446,0.0000,0.0000,0.0000,0.0000,0.0000,nothing
83420,-0.2680,0.0990,0.0147,0.4848,1.2768,-9.7573,1.7996,7.2790,172.4995,0.0000,0.0000,0.0000,0.0000,0.0000,nothing
83536,-0.2857,0.0772,0.0057,0.2951,1.1283,-9.7274,1.7923,7.2125,172.5658,0.0000,0.0000,0.0000,0.0000,0.0000,nothing
83652,-0.1834,0.0405,0.0504,0.2191,1.1283,-9.7860,1.7403,7.1487,172.6404,0.0000,0.0000,0.0000,0.0000,0.0000,nothing
83768,-0.1684,0.0390,0.0123,0.3436,1.1792,-9.7334,1.7669,7.1242,172.6578,0.0000,0.0000,0.0000,0.0000,0.0000,nothing
83884,-0.1988,0.0458,-0.0511,0.3573,1.2145,-9.7220,1.7991,7.1234,172.6507,0.0000,0.0000,0.0000,0.0000,0.0000,nothing
84000,-0.1712,0.0672,0.0224,0.3597,1.2199,-9.7567,1.8287,7.1232,172.6434,0.0000,0.0000,0.0000,0.0000,0.0000,nothing
84116,-0.2453,0.0406,0.0161,0.3214,1.1870,-9.6993,1.8343,7.1083,172.6565,0.0000,0.0000,0.0000,0.0000,0.0000,nothing
84232,-0.2113,0.0735,-0.0439,0.3466,1.2295,-9.7424,1.8530,7.1163,172.6440,0.0000,0.0000,0.0000,0.0000,0.0000,nothing
84348,-0.1994,0.0605,0.0718,0.2771,1.2241,-9.7292,1.8296,7.1215,172.6449,0.0000,0.0000,0.0000,0.0000,0.0000,nothing
84464,-0.2097,0.0323,0.0119,0.3232,1.2037,-9.7597,1.8349,7.1120,172.6527,0.0000,0.0000,0.0000,0.0000,0.0000,nothing
84580,-0.1715,0.0597,-0.0243,0.3089,1.2013,-9.7214,1.8320,7.1050,172.6603,0.0000,0.0000,0.0000,0.0000,0.0000,nothing
84696,-0.2042,0.0574,-0.0282,0.2909,1.2061,-9.7442,1.8185,7.0998,172.6687,0.0000,0.0000,0.0000,0.0000,0.0000,nothing
84812,-0.2286,0.0709,0.0492,0.3747,1.2444,-9.7106,1.8558,7.1195,172.6402,0.0000,0.0000,0.0000,0.0000,0.0000,nothing
84928,-0.2138,0.0613,-0.0209,0.3005,1.2157,-9.7573,1.8452,7.1174,172.6449,0.0000,0.0000,0.0000,0.0000,0.0000,nothing
85044,-0.2214,0.0339,-0.0048,0.3035,1.2097,-9.7406,1.8378,7.1133,172.6508,0.0000,0.0000,0.0000,0.0000,0.0000,nothing
85160,-0.2283,0.0553,0.0499,0.2987,1.2163,-9.7579,1.8280,7.1121,172.6543,0.0000,0.0000,0.0000,0.0000,0.0000,nothing
85276,-0.2099,0.0540,0.0376,0.3352,1.1953,-9.7651,1.8403,7.0984,172.6646,0.0000,0.0000,0.0000,0.0000,0.0000,nothing
85392,-0.1872,0.0394,-0.0086,0.1808,1.2121,-9.7370,1.7619,7.0981,172.6843,0.0000,0.0000,0.0000,0.0000,0.0000,nothing
85508,-0.1933,0.0733,0.0134,0.3406,1.2121,-9.7442,1.7844,7.0969,172.6799,0.0000,0.0000,0.0000,0.0000,0.0000,nothing
85624,-0.2113,0.0577,0.0243,0.2879,1.1942,-9.7262,1.7743,7.0869,172.6922,0.0000,0.0000,0.0000,0.0000,0.0000,nothing
85740,-0.1934,0.0866,-0.0035,0.3262,1.2085,-9.7382,1.7872,7.0853,172.6906,0.0000,0.0000,0.0000,0.0000,0.0000,nothing
85856,-0.2031,0.0712,-0.0300,0.3376,1.2031,-9.7334,1.8057,7.0810,172.6901,0.0000,0.0000,0.0000,0.0000,0.0000,nothing
85972,-0.2098,0.0648,0.0284,0.2747,1.1947,-9.7591,1.7851,7.0705,172.7054,0.0000,0.0000,0.0000,0.0000,0.0000,nothing
86088,-0.2228,0.0754,0.0210,0.3322,1.2175,-9.7340,1.8006,7.0760,172.6962,0.0000,0.0000,0.0000,0.0000,0.0000,nothing
86204,-0.2282,0.0725,-0.0025,0.2909,1.2097,-9.7358,1.7904,7.0764,172.6984,0.0000,0.0000,0.0000,0.0000,0.0000,nothing
86320,-0.2007,0.0500,0.0243,0.3502,1.2271,-9.7046,1.8163,7.0889,172.6798,0.0000,0.0000,0.0000,0.0000,0.0000,nothing
86436,-0.2247,0.0802,0.0269,0.3567,1.3755,-9.7196,1.8428,7.1850,172.5800,0.0000,0.0000,0.0000,0.0000,0.0000,nothing
86552,-0.2039,0.0545,0.0139,0.3627,1.1840,-9.7316,1.8704,7.1597,172.5975,0.0000,0.0000,0.0000,0.0000,0.0000,nothing
86668,-0.2094,0.0768,-0.0239,0.2801,1.2343,-9.7130,1.8473,7.1677,172.5957,0.0000,0.0000,0.0000,0.0000,0.0000,nothing
86784,-0.1960,0.0555,-0.0210,0.2741,1.1792,-9.7597,1.8223,7.1395,172.6293,0.0000,0.0000,0.0000,0.0000,0.0000,nothing
86900,-0.2395,0.0744,-0.0011,0.3603,1.2097,-9.6939,1.8512,7.1364,172.6250,0.0000,0.0000,0.0000,0.0000,0.0000,nothing
87016,-0.1986,0.0815,0.0269,0.3113,1.2193,-9.7418,1.8476,7.1358,172.6265,0.0000,0.0000,0.0000,0.0000,0.0000,nothing
87132,-0.2256,0.0646,0.0072,0.3196,1.2199,-9.7382,1.8494,7.1359,172.6260,0.0000,0.0000,0.0000,0.0000,0.0000,nothing
87248,-0.2258,0.0759,-0.0020,0.3214,1.2492,-9.7681,1.8514,7.1507,172.6111,0.0000,0.0000,0.0000,0.0000,0.0000,nothing
87364,-0.2052,0.0778,0.0037,0.3023,1.1953,-9.7106,1.8433,7.1371,172.6263,0.0000,0.0000,0.0000,0.0000,0.0000,nothing
87480,-0.1930,0.0897,-0.0420,0.2831,1.2390,-9.7364,1.8242,7.1484,172.6202,0.0000,0.0000,0.0000,0.0000,0.0000,nothing
87596,-0.1411,0.0412,0.0474,0.5070,1.1582,-9.7100,1.9383,7.1130,172.6250,0.0000,0.0000,0.0000,0.0000,0.0000,nothing
87712,-0.2159,0.0688,-0.0702,0.3011,1.3582,-9.8232,1.9182,7.1893,172.5566,0.0000,0.0000,0.0000,0.0000,0.0000,nothing
87828,-0.2480,0.0206,0.0327,0.2179,1.4354,-9.9393,1.8493,7.2940,172.4727,0.0000,0.0000,0.0000,0.0000,0.0000,nothing
87944,-0.1602,0.1042,-0.0620,0.1826,1.0409,-9.6442,1.7733,7.1821,172.6000,0.0000,0.0000,0.0000,0.0000,0.0000,nothing
88060,-0.2140,0.0491,0.0010,0.4010,1.2019,-9.6627,1.8313,7.1725,172.5951,0.0000,0.0000,0.0000,0.0000,0.0000,nothing
88176,-0.2069,0.0874,-0.0063,0.3945,1.2091,-9.7878,1.8774,7.1588,172.5966,0.0000,0.0000,0.0000,0.0000,0.0000,nothing
88292,-0.2049,0.0449,-0.0183,0.2269,1.1086,-9.7639,1.8219,7.0905,172.6768,0.0000,0.0000,0.0000,0.0000,0.0000,nothing
88408,-0.1704,0.0368,0.0323,0.3867,1.1229,-9.6963,1.8664,7.0418,172.7126,0.0000,0.0000,0.0000,0.0000,0.0000,nothing
88524,-0.1710,0.0461,-0.1048,0.2957,1.2103,-9.7250,1.8526,7.0467,172.7114,0.0000,0.0000,0.0000,0.0000,0.0000,nothing
88640,-0.1572,0.0961,0.1291,0.1538,1.1930,-9.7436,1.7571,7.0401,172.7418,0.0000,0.0000,0.0000,0.0000,0.0000,nothing
88756,-0.1872,0.0773,0.0055,0.3352,1.2947,-9.7675,1.7763,7.0909,172.6878,0.0000,0.0000,0.0000,0.0000,0.0000,nothing
88872,-0.2030,0.0543,-0.0052,0.3178,1.2378,-9.7040,1.7848,7.1083,172.6688,0.0000,0.0000,0.0000,0.0000,0.0000,nothing
88988,-0.2146,0.0807,-0.0142,0.3119,1.2187,-9.7220,1.7886,7.1116,172.6647,0.0000,0.0000,0.0000,0.0000,0.0000,nothing
89104,-0.2007,0.0598,-0.0014,0.3376,1.2085,-9.7465,1.8066,7.1069,172.6648,0.0000,0.0000,0.0000,0.0000,0.0000,nothing
89220,-0.2084,0.0484,0.0044,0.2490,1.3641,-9.7699,1.7704,7.1912,172.5919,0.0000,0.0000,0.0000,0.0000,0.0000,nothing
89336,-0.1830,0.0849,0.0130,0.3657,1.2474,-9.7645,1.8062,7.1996,172.5750,0.0000,0.0000,0.0000,0.0000,0.0000,nothing
89452,-0.1836,0.0390,0.0139,0.2891,1.2355,-9.7358,1.7943,7.2025,172.5750,0.0000,0.0000,0.0000,0.0000,0.0000,nothing
89568,-0.2113,0.0615,0.0140,0.2921,1.2229,-9.7352,1.7854,7.1979,172.5816,0.0000,0.0000,0.0000,0.0000,0.0000,nothing
89684,-0.2090,0.0748,0.0076,0.3322,1.2331,-9.7340,1.8008,7.1997,172.5762,0.0000,0.0000,0.0000,0.0000,0.0000,nothing
89800,-0.2029,0.0650,-0.0072,0.3119,1.1977,-9.7753,1.8021,7.1778,172.5971,0.0000,0.0000,0.0000,0.0000,0.0000,nothing
89916,-0.1925,0.0672,-0.0174,0.3208,1.2372,-9.7609,1.8087,7.1821,172.5913,0.0000,0.0000,0.0000,0.0000,0.0000,nothing
90032,-0.1985,0.0770,0.0018,0.2975,1.2384,-9.7160,1.8018,7.1899,172.5854,0.0000,0.0000,0.0000,0.0000,0.0000,nothing
90148,-0.1840,0.0624,-0.0288,0.3202,1.1672,-9.7513,1.8084,7.1531,172.6195,0.0000,0.0000,0.0000,0.0000,0.0000,nothing
90264,-0.1408,0.0575,0.0207,0.2885,1.2277,-9.7400,1.7959,7.1559,172.6199,0.0000,0.0000,0.0000,0.0000,0.0000,nothing
90380,-0.1718,0.0533,-0.0244,0.3448,1.2127,-9.7657,1.8170,7.1477,172.6226,0.0000,0.0000,0.0000,0.0000,0.0000,nothing
90496,-0.2469,0.0638,-0.0311,0.3669,1.2666,-9.7507,1.8490,7.1726,172.5905,0.0000,0.0000,0.0000,0.0000,0.0000,nothing
90612,-0.2195,0.0406,-0.0059,0.3526,1.2109,-9.7573,1.8695,7.1623,172.5952,0.0000,0.0000,0.0000,0.0000,0.0000,nothing
90728,-0.2014,0.0874,0.0262,0.2867,1.1822,-9.7430,1.8499,7.1376,172.6241,0.0000,0.0000,0.0000,0.0000,0.0000,nothing
90844,-0.1760,0.0603,0.0410,0.3585,1.1888,-9.7256,1.8745,7.1203,172.6346,0.0000,0.0000,0.0000,0.0000,0.0000,nothing
90960,-0.1959,0.0658,-0.0266,0.3131,1.2115,-9.7082,1.8703,7.1193,172.6367,0.0000,0.0000,0.0000,0.0000,0.0000,nothing
91076,-0.1963,0.0738,0.0000,0.2765,1.2097,-9.7507,1.8445,7.1143,172.6481,0.0000,0.0000,0.0000,0.0000,0.0000,nothing
91192,-0.1868,0.0898,-0.0026,0.3214,1.2247,-9.7603,1.8472,7.1176,172.6442,0.0000,0.0000,0.0000,0.0000,0.0000,nothing
91308,-0.2120,0.0435,-0.0239,0.3370,1.2073,-9.7639,1.8587,7.1104,172.6483,0.0000,0.0000,0.0000,0.0000,0.0000,nothing
91424,-0.1898,0.0946,0.0402,0.3292,1.2319,-9.7471,1.8647,7.1192,172.6382,0.0000,0.0000,0.0000,0.0000,0.0000,nothing
91540,-0.2210,0.0633,0.0061,0.3406,1.2265,-9.7579,1.8766,7.1233,172.6312,0.0000,0.0000,0.0000,0.0000,0.0000,nothing
91656,-0.1478,0.0613,0.0134,0.3143,1.2181,-9.7082,1.8729,7.1257,172.6298,0.0000,0.0000,0.0000,0.0000,0.0000,nothing
91772,-0.2183,0.0600,0.0179,0.3172,1.2055,-9.7639,1.8703,7.1166,172.6393,0.0000,0.0000,0.0000,0.0000,0.0000,nothing
91888,-0.2371,0.0450,0.0230,0.3214,1.2522,-9.7208,1.8711,7.1385,172.6178,0.0000,0.0000,0.0000,0.0000,0.0000,nothing
92004,-0.2311,0.0748,0.0431,0.3107,1.2145,-9.7513,1.8651,7.1343,172.6235,0.0000,0.0000,0.0000,0.0000,0.0000,nothing
92120,-0.2213,0.0747,-0.0113,0.3053,1.2175,-9.7358,1.8568,7.1333,172.6266,0.0000,0.0000,0.0000,0.0000,0.0000,nothing
92236,-0.2009,0.0785,0.0409,0.3400,1.2265,-9.7394,1.8695,7.1373,172.6195,0.0000,0.0000,0.0000,0.0000,0.0000,nothing
92352,-0.2214,0.0699,-0.0269,0.4555,1.1834,-9.7561,1.9480,7.1144,172.6210,0.0000,0.0000,0.0000,0.0000,0.0000,nothing
92468,-0.1022,0.0609,0.0219,0.2640,1.1505,-9.6705,1.9088,7.0814,172.6633,0.0000,0.0000,0.0000,0.0000,0.0000,nothing
92584,-0.2267,0.0477,0.0318,0.2394,1.1666,-9.7687,1.8572,7.0541,172.7031,0.0000,0.0000,0.0000,0.0000,0.0000,nothing
92700,-0.2248,0.0284,0.0333,0.3286,1.3169,-9.6909,1.8639,7.1219,172.6358,0.0000,0.0000,0.0000,0.0000,0.0000,nothing
92816,-0.2483,0.0872,0.0446,0.3657,1.2384,-9.7274,1.8911,7.1347,172.6164,0.0000,0.0000,0.0000,0.0000,0.0000,nothing
92932,-0.1530,0.1166,-0.0198,0.3520,1.1564,-9.6897,1.9085,7.1016,172.6439,0.0000,0.0000,0.0000,0.0000,0.0000,nothing
93048,-0.1302,-0.0123,-0.0110,0.4226,1.3438,-9.9028,1.9607,7.1646,172.5692,0.0000,0.0000,0.0000,0.0000,0.0000,nothing
93164,-0.3290,0.0834,0.0620,0.4304,1.1726,-9.6843,2.0169,7.1381,172.5796,0.0000,0.0000,0.0000,0.0000,0.0000,nothing
93280,-0.3453,0.0844,0.0818,0.3035,1.2612,-9.7687,1.9916,7.1596,172.5657,0.0000,0.0000,0.0000,0.0000,0.0000,nothing
93396,-0.2468,0.0822,0.0232,0.1772,1.2528,-9.6897,1.8968,7.1802,172.5709,0.0000,0.0000,0.0000,0.0000,0.0000,nothing
93512,-0.2249,0.1159,-0.0003,0.2879,1.2235,-9.7453,1.8750,7.1775,172.5791,0.0000,0.0000,0.0000,0.0000,0.0000,nothing
93628,-0.2774,0.1607,0.0596,0.2454,1.3629,-9.6771,1.8316,7.2608,172.5093,0.0000,0.0000,0.0000,0.0000,0.0000,nothing
93744,-0.1776,0.1230,-0.0247,0.4118,1.0445,-9.7017,1.8899,7.1493,172.6026,0.0000,0.0000,0.0000,0.0000,0.0000,nothing
93860,-0.0938,-0.0086,-0.0502,0.3837,0.7458,-9.8345,1.9240,6.8663,172.8668,0.0000,0.0000,0.0000,0.0000,0.0000,nothing
93976,-0.3095,0.1277,-0.0316,0.2831,1.4731,-9.5813,1.8993,7.0513,172.6949,0.0000,0.0000,0.0000,0.0000,0.0000,nothing
94092,-0.3326,0.1102,0.0040,0.1868,1.5683,-9.5628,1.8207,7.2750,172.4982,0.0000,0.0000,0.0000,0.0000,0.0000,nothing
94208,-0.1782,0.1588,0.0480,0.0515,1.4180,-9.6346,1.6697,7.3844,172.4271,0.0000,0.0000,0.0000,0.0000,0.0000,nothing
94324,-0.1744,0.1201,-0.0217,0.5094,1.0780,-9.7136,1.8011,7.2786,172.4995,0.0000,0.0000,0.0000,0.0000,0.0000,nothing
94440,-0.0334,0.0860,-0.0059,0.3352,1.1259,-9.7346,1.8170,7.2100,172.5622,0.0000,0.0000,0.0000,0.0000,0.0000,nothing
94556,-0.0822,0.0504,-0.0964,0.4675,0.9829,-9.7064,1.9095,7.0669,172.6772,0.0000,0.0000,0.0000,0.0000,0.0000,nothing
94672,-0.1652,-0.0180,-0.0130,0.3472,1.3372,-9.8704,1.9183,7.1323,172.6116,0.0000,0.0000,0.0000,0.0000,0.0000,nothing
94788,-0.3275,0.0330,-0.0044,0.3855,1.2738,-9.6544,1.9530,7.1699,172.5662,0.0000,0.0000,0.0000,0.0000,0.0000,nothing
94904,-0.3554,0.0698,0.0372,0.1437,1.0307,-9.6214,1.8440,7.0656,172.6954,0.0000,0.0000,0.0000,0.0000,0.0000,nothing
95020,-0.2487,0.0853,0.0549,0.3861,1.2007,-9.6903,1.8860,7.0649,172.6853,0.0000,0.0000,0.0000,0.0000,0.0000,nothing
95136,-0.1921,0.1292,-0.0093,0.3119,1.1570,-9.7334,1.8796,7.0359,172.7149,0.0000,0.0000,0.0000,0.0000,0.0000,nothing
95252,-0.1613,0.0301,-0.0004,0.3538,1.2690,-9.7376,1.8980,7.0744,172.6729,0.0000,0.0000,0.0000,0.0000,0.0000,nothing
95368,-0.1416,0.0533,0.0434,0.3526,0.9380,-9.8932,1.9117,6.9059,172.8319,0.0000,0.0000,0.0000,0.0000,0.0000,nothing
95484,-0.1801,-0.0001,0.0277,0.3603,1.2474,-9.8244,1.9290,6.9388,172.7955,0.0000,0.0000,0.0000,0.0000,0.0000,nothing
95600,-0.1610,0.1118,0.0443,0.1359,1.2600,-9.6406,1.8172,6.9891,172.7762,0.0000,0.0000,0.0000,0.0000,0.0000,nothing
95716,-0.1258,0.0830,0.0113,0.4842,1.0912,-9.7513,1.9182,6.9279,172.8089,0.0000,0.0000,0.0000,0.0000,0.0000,nothing
95832,-0.1866,0.0735,0.0669,0.2939,1.2744,-9.7238,1.8980,6.9815,172.7626,0.0000,0.0000,0.0000,0.0000,0.0000,nothing
95948,-0.2110,0.0514,0.0139,0.3861,1.2343,-9.7388,1.9335,7.0051,172.7304,0.0000,0.0000,0.0000,0.0000,0.0000,nothing
96064,-0.2410,0.0991,0.0626,0.2418,1.3641,-9.7699,1.8803,7.0998,172.6530,0.0000,0.0000,0.0000,0.0000,0.0000,nothing
96180,-0.2720,0.0417,-0.0112,0.4256,1.2049,-9.7585,1.9403,7.0930,172.6438,0.0000,0.0000,0.0000,0.0000,0.0000,nothing
96296,-0.2658,0.0566,-0.0033,0.1886,1.1588,-9.7974,1.8553,7.0581,172.6998,0.0000,0.0000,0.0000,0.0000,0.0000,nothing
96412,-0.1260,0.0669,0.0056,0.3226,1.1391,-9.7591,1.8579,7.0176,172.7382,0.0000,0.0000,0.0000,0.0000,0.0000,nothing
96528,-0.1348,0.0575,0.0412,0.3041,1.2366,-9.7034,1.8502,7.0417,172.7169,0.0000,0.0000,0.0000,0.0000,0.0000,nothing
96644,-0.1850,0.0708,-0.0331,0.4561,1.2815,-9.7585,1.9307,7.0851,172.6540,0.0000,0.0000,0.0000,0.0000,0.0000,nothing
96760,-0.1881,0.0538,0.0451,0.3358,1.2378,-9.7681,1.9330,7.0984,172.6405,0.0000,0.0000,0.0000,0.0000,0.0000,nothing
96876,-0.2153,0.0663,-0.0038,0.2891,1.2361,-9.7872,1.9075,7.1081,172.6379,0.0000,0.0000,0.0000,0.0000,0.0000,nothing
96992,-0.1872,0.0398,0.0189,0.3190,1.1696,-9.7370,1.9030,7.0819,172.6643,0.0000,0.0000,0.0000,0.0000,0.0000,nothing
97108,-0.2038,0.0618,-0.0367,0.3627,1.1696,-9.7615,1.9241,7.0565,172.6833,0.0000,0.0000,0.0000,0.0000,0.0000,nothing
97224,-0.2113,0.0521,0.0090,0.3053,1.1900,-9.7256,1.9101,7.0481,172.6951,0.0000,0.0000,0.0000,0.0000,0.0000,nothing
97340,-0.2301,0.0826,0.0026,0.3125,1.2666,-9.7651,1.9009,7.0820,172.6648,0.0000,0.0000,0.0000,0.0000,0.0000,nothing
97456,-0.2004,0.0462,0.0207,0.3208,1.1684,-9.7579,1.8978,7.0563,172.6905,0.0000,0.0000,0.0000,0.0000,0.0000,nothing
97572,-0.1810,0.0923,-0.0072,0.3526,1.2061,-9.7184,1.9141,7.0576,172.6849,0.0000,0.0000,0.0000,0.0000,0.0000,nothing
97688,-0.1933,0.0489,0.0413,0.3388,1.2414,-9.7537,1.9201,7.0768,172.6648,0.0000,0.0000,0.0000,0.0000,0.0000,nothing
97804,-0.2037,0.0446,-0.0016,0.3316,1.2199,-9.7274,1.9218,7.0835,172.6579,0.0000,0.0000,0.0000,0.0000,0.0000,nothing
97920,-0.2082,0.0787,-0.0052,0.2909,1.2522,-9.7136,1.8998,7.1093,172.6387,0.0000,0.0000,0.0000,0.0000,0.0000,nothing
98036,-0.2345,0.0612,0.0151,0.3238,1.2205,-9.7585,1.8984,7.1109,172.6375,0.0000,0.0000,0.0000,0.0000,0.0000,nothing
98152,-0.2296,0.0564,0.0020,0.2915,1.2408,-9.7549,1.8783,7.1244,172.6296,0.0000,0.0000,0.0000,0.0000,0.0000,nothing
98268,-0.2199,0.0907,-0.0025,0.3579,1.1636,-9.7088,1.9001,7.0951,172.6524,0.0000,0.0000,0.0000,0.0000,0.0000,nothing
98384,-0.2015,0.0804,-0.0127,0.2771,1.1702,-9.7352,1.8720,7.0708,172.6832,0.0000,0.0000,0.0000,0.0000,0.0000,nothing
98500,-0.1710,0.0853,-0.0130,0.3430,1.2187,-9.7208,1.8853,7.0778,172.6729,0.0000,0.0000,0.0000,0.0000,0.0000,nothing
98616,-0.1729,0.0566,0.0383,0.3256,1.2576,-9.7394,1.8867,7.1054,172.6459,0.0000,0.0000,0.0000,0.0000,0.0000,nothing
98732,-0.2267,0.0736,-0.0151,0.2939,1.2372,-9.7633,1.8690,7.1168,172.6394,0.0000,0.0000,0.0000,0.0000,0.0000,nothing
98848,-0.2304,0.0615,0.0318,0.3651,1.2480,-9.7118,1.8956,7.1368,172.6132,0.0000,0.0000,0.0000,0.0000,0.0000,nothing
98964,-0.2254,0.0721,0.0721,0.3113,1.2073,-9.7406,1.8877,7.1294,172.6225,0.0000,0.0000,0.0000,0.0000,0.0000,nothing
99080,-0.1877,0.0612,-0.0533,0.3250,1.1918,-9.7310,1.8888,7.1143,172.6367,0.0000,0.0000,0.0000,0.0000,0.0000,nothing
99196,-0.1772,0.0755,0.0293,0.3436,1.2115,-9.7442,1.9003,7.1112,172.6368,0.0000,0.0000,0.0000,0.0000,0.0000,nothing
99312,-0.1969,0.0568,0.0275,0.3065,1.2534,-9.7406,1.8890,7.1329,172.6186,0.0000,0.0000,0.0000,0.0000,0.0000,nothing
99428,-0.2008,0.0630,-0.0183,0.3364,1.2205,-9.7076,1.8970,7.1358,172.6138,0.0000,0.0000,0.0000,0.0000,0.0000,nothing
99544,-0.1750,0.0769,-0.0180,0.3101,1.2109,-9.7364,1.8883,7.1308,172.6209,0.0000,0.0000,0.0000,0.0000,0.0000,nothing
99660,-0.1884,0.0661,0.0491,0.2933,1.2277,-9.7400,1.8706,7.1358,172.6206,0.0000,0.0000,0.0000,0.0000,0.0000,nothing
99776,-0.2187,0.0560,0.0327,0.3250,1.2277,-9.7825,1.8724,7.1372,172.6189,0.0000,0.0000,0.0000,0.0000,0.0000,nothing
99892,-0.1959,0.0675,-0.0241,0.3226,1.2366,-9.7268,1.8736,7.1476,172.6084,0.0000,0.0000,0.0000,0.0000,0.0000,nothing
100008,-0.1802,0.0563,0.0236,0.2472,1.2576,-9.7771,1.8297,7.1656,172.6021,0.0000,0.0000,0.0000,0.0000,0.0000,nothing
100124,-0.2169,0.0532,-0.0300,0.3346,1.2301,-9.7208,1.8423,7.1698,172.5948,0.0000,0.0000,0.0000,0.0000,0.0000,nothing
100240,-0.2134,0.0586,-0.0076,0.3358,1.2313,-9.7328,1.8541,7.1734,172.5884,0.0000,0.0000,0.0000,0.0000,0.0000,nothing
100356,-0.2102,0.0345,-0.0281,0.2646,1.1469,-9.7208,1.8236,7.1288,172.6393,0.0000,0.0000,0.0000,0.0000,0.0000,nothing
100472,-0.1532,0.0658,-0.0063,0.3627,1.2833,-9.7735,1.8521,7.1637,172.5983,0.0000,0.0000,0.0000,0.0000,0.0000,nothing
100588,-0.1984,0.0594,0.0003,0.3843,1.2043,-9.7442,1.8911,7.1513,172.6003,0.0000,0.0000,0.0000,0.0000,0.0000,nothing
100704,-0.2363,0.0687,0.0562,0.2837,1.2456,-9.7585,1.8671,7.1633,172.5948,0.0000,0.0000,0.0000,0.0000,0.0000,nothing
100820,-0.1971,0.0774,0.0397,0.3322,1.1780,-9.7076,1.8749,7.1386,172.6168,0.0000,0.0000,0.0000,0.0000,0.0000,nothing
100936,-0.1951,0.0612,0.0275,0.3364,1.2121,-9.7597,1.8834,7.1323,172.6208,0.0000,0.0000,0.0000,0.0000,0.0000,nothing
101052,-0.1989,0.0669,0.0267,0.3526,1.2049,-9.7292,1.9010,7.1246,172.6236,0.0000,0.0000,0.0000,0.0000,0.0000,nothing
101168,-0.1618,0.0657,0.0029,0.2227,1.2654,-9.7465,1.8406,7.1517,172.6128,0.0000,0.0000,0.0000,0.0000,0.0000,nothing
101284,-0.1581,0.0731,0.0134,0.3514,1.1971,-9.7226,1.8619,7.1381,172.6206,0.0000,0.0000,0.0000,0.0000,0.0000,nothing
101400,-0.1750,0.0320,-0.0198,0.3412,1.2103,-9.7495,1.8747,7.1315,172.6237,0.0000,0.0000,0.0000,0.0000,0.0000,nothing
101516,-0.1898,0.0282,-0.0315,0.3041,1.2582,-9.7364,1.8646,7.1543,172.6042,0.0000,0.0000,0.0000,0.0000,0.0000,nothing
101632,-0.2138,0.0646,0.0196,0.3885,1.2462,-9.7597,1.9043,7.1660,172.5827,0.0000,0.0000,0.0000,0.0000,0.0000,nothing
101748,-0.2005,0.0751,0.0339,0.2580,1.2720,-9.7525,1.8641,7.1923,172.5676,0.0000,0.0000,0.0000,0.0000,0.0000,nothing
101864,-0.2158,0.0605,0.0274,0.3472,1.2265,-9.7430,1.8802,7.1901,172.5656,0.0000,0.0000,0.0000,0.0000,0.0000,nothing
101980,-0.2031,0.0571,0.0588,0.3448,1.2432,-9.7633,1.8928,7.1964,172.5563,0.0000,0.0000,0.0000,0.0000,0.0000,nothing
102096,-0.1875,0.0568,-0.0374,0.3053,1.2097,-9.6957,1.8825,7.1876,172.5674,0.0000,0.0000,0.0000,0.0000,0.0000,nothing
102212,-0.1716,0.0684,0.0179,0.3310,1.1678,-9.8028,1.8863,7.1476,172.6051,0.0000,0.0000,0.0000,0.0000,0.0000,nothing
102328,-0.2255,0.0881,-0.0605,0.3675,1.2881,-9.7094,1.9125,7.1880,172.5594,0.0000,0.0000,0.0000,0.0000,0.0000,nothing
102444,-0.2551,0.1125,0.0461,0.2574,1.2265,-9.7370,1.8715,7.1868,172.5710,0.0000,0.0000,0.0000,0.0000,0.0000,nothing
102560,-0.2339,0.0683,-0.0061,0.3214,1.1271,-9.7394,1.8722,7.1280,172.6277,0.0000,0.0000,0.0000,0.0000,0.0000,nothing
102676,-0.2014,0.0357,0.0282,0.3196,1.1528,-9.7286,1.8718,7.0907,172.6639,0.0000,0.0000,0.0000,0.0000,0.0000,nothing
102792,-0.1997,0.0334,-0.0394,0.3035,1.2181,-9.7394,1.8618,7.0942,172.6631,0.0000,0.0000,0.0000,0.0000,0.0000,nothing
102908,-0.1870,0.0934,0.0416,0.3406,1.2193,-9.7400,1.8743,7.0979,172.6563,0.0000,0.0000,0.0000,0.0000,0.0000,nothing
103024,-0.1977,0.0577,0.0015,0.3388,1.2384,-9.7430,1.8844,7.1121,172.6400,0.0000,0.0000,0.0000,0.0000,0.0000,nothing
103140,-0.2185,0.0634,0.0327,0.2801,1.2456,-9.7322,1.8596,7.1300,172.6291,0.0000,0.0000,0.0000,0.0000,0.0000,nothing
103256,-0.2264,0.0814,0.0277,0.4058,1.2097,-9.7525,1.9101,7.1235,172.6223,0.0000,0.0000,0.0000,0.0000,0.0000,nothing
103372,-0.1914,0.0511,0.0297,0.2628,1.2774,-9.7274,1.8726,7.1589,172.5977,0.0000,0.0000,0.0000,0.0000,0.0000,nothing
103488,-0.2154,0.0618,-0.0286,0.3831,1.1989,-9.7376,1.9089,7.1444,172.6024,0.0000,0.0000,0.0000,0.0000,0.0000,nothing
103604,-0.2248,0.0789,-0.0222,0.3095,1.2366,-9.7609,1.8982,7.1517,172.5981,0.0000,0.0000,0.0000,0.0000,0.0000,nothing
103720,-0.2076,0.0380,0.0146,0.3472,1.1912,-9.7849,1.9101,7.1301,172.6159,0.0000,0.0000,0.0000,0.0000,0.0000,nothing
103836,-0.1992,0.0817,0.0074,0.2843,1.2013,-9.7418,1.8850,7.1198,172.6324,0.0000,0.0000,0.0000,0.0000,0.0000,nothing
103952,-0.1939,0.0375,-0.0374,0.2909,1.1834,-9.7244,1.8667,7.1014,172.6549,0.0000,0.0000,0.0000,0.0000,0.0000,nothing
104068,-0.1860,0.0766,-0.0180,0.3292,1.2085,-9.7591,1.8718,7.0968,172.6581,0.0000,0.0000,0.0000,0.0000,0.0000,nothing
104184,-0.2112,0.0977,-0.0579,0.4699,1.1828,-9.7507,1.9585,7.0780,172.6534,0.0000,0.0000,0.0000,0.0000,0.0000,nothing
104300,-0.1797,0.0766,0.0149,0.3280,1.1912,-9.7549,1.9538,7.0660,172.6662,0.0000,0.0000,0.0000,0.0000,0.0000,nothing
104416,-0.2218,0.0762,0.0177,0.3017,1.2929,-9.7513,1.9341,7.1144,172.6248,0.0000,0.0000,0.0000,0.0000,0.0000,nothing
104532,-0.2331,0.0590,-0.0123,0.3520,1.2325,-9.7406,1.9460,7.1236,172.6127,0.0000,0.0000,0.0000,0.0000,0.0000,nothing
104648,-0.2072,0.0897,-0.0346,0.3268,1.1810,-9.7430,1.9421,7.1020,172.6346,0.0000,0.0000,0.0000,0.0000,0.0000,nothing
104764,-0.1629,0.0661,-0.0012,0.2909,1.2151,-9.7807,1.9169,7.0997,172.6435,0.0000,0.0000,0.0000,0.0000,0.0000,nothing
104880,-0.2048,0.0776,-0.0507,0.4573,1.2540,-9.7244,1.9921,7.1237,172.6002,0.0000,0.0000,0.0000,0.0000,0.0000,nothing
104996,-0.2154,0.0455,0.0420,0.3292,1.2109,-9.7519,1.9848,7.1188,172.6069,0.0000,0.0000,0.0000,0.0000,0.0000,nothing
105112,-0.2098,0.0915,-0.0139,0.3035,1.2181,-9.7442,1.9633,7.1191,172.6124,0.0000,0.0000,0.0000,0.0000,0.0000,nothing
105228,-0.1565,0.0618,0.0676,0.2694,1.2169,-9.7436,1.9242,7.1188,172.6231,0.0000,0.0000,0.0000,0.0000,0.0000,nothing
105344,-0.2161,0.0648,-0.0579,0.3089,1.2600,-9.7058,1.9125,7.1462,172.5998,0.0000,0.0000,0.0000,0.0000,0.0000,nothing
105460,-0.2041,0.0398,0.0609,0.3364,1.2211,-9.6963,1.9184,7.1489,172.5956,0.0000,0.0000,0.0000,0.0000,0.0000,nothing
105576,-0.2057,0.0826,-0.0203,0.2700,1.2115,-9.7017,1.8848,7.1455,172.6075,0.0000,0.0000,0.0000,0.0000,0.0000,nothing
105692,-0.2117,0.0770,-0.0304,0.3645,1.2103,-9.7052,1.9097,7.1414,172.6051,0.0000,0.0000,0.0000,0.0000,0.0000,nothing
105808,-0.1890,0.0858,-0.0484,0.2837,1.2714,-9.7543,1.8839,7.1696,172.5845,0.0000,0.0000,0.0000,0.0000,0.0000,nothing
105924,-0.2172,0.0761,0.0521,0.3556,1.2067,-9.7376,1.9031,7.1586,172.5902,0.0000,0.0000,0.0000,0.0000,0.0000,nothing
106040,-0.2034,0.0637,0.0033,0.2783,1.2361,-9.7471,1.8750,7.1652,172.5910,0.0000,0.0000,0.0000,0.0000,0.0000,nothing
106156,-0.1767,0.0706,0.0522,0.3639,1.2115,-9.7148,1.9003,7.1590,172.5905,0.0000,0.0000,0.0000,0.0000,0.0000,nothing
106272,-0.1954,0.0763,-0.0120,0.3077,1.2331,-9.7262,1.8901,7.1653,172.5871,0.0000,0.0000,0.0000,0.0000,0.0000,nothing
106388,-0.1990,0.0525,0.0185,0.3741,1.2349,-9.7184,1.9197,7.1724,172.5725,0.0000,0.0000,0.0000,0.0000,0.0000,nothing
106504,-0.2236,0.0680,0.0191,0.3274,1.2552,-9.7328,1.9188,7.1896,172.5561,0.0000,0.0000,0.0000,0.0000,0.0000,nothing
106620,-0.2039,0.0653,0.0019,0.3226,1.2079,-9.7651,1.9147,7.1754,172.5709,0.0000,0.0000,0.0000,0.0000,0.0000,nothing
106736,-0.2123,0.0528,-0.0217,0.3262,1.2001,-9.7591,1.9133,7.1585,172.5876,0.0000,0.0000,0.0000,0.0000,0.0000,nothing
106852,-0.1887,0.0509,-0.0079,0.2999,1.1971,-9.7088,1.8976,7.1453,172.6045,0.0000,0.0000,0.0000,0.0000,0.0000,nothing
106968,-0.2000,0.0447,-0.0209,0.2610,1.2187,-9.7118,1.8606,7.1458,172.6135,0.0000,0.0000,0.0000,0.0000,0.0000,nothing
107084,-0.2113,0.0479,0.0296,0.3705,1.2109,-9.7214,1.8912,7.1407,172.6106,0.0000,0.0000,0.0000,0.0000,0.0000,nothing
107200,-0.2281,0.0740,-0.0034,0.3023,1.2366,-9.7178,1.8788,7.1515,172.6033,0.0000,0.0000,0.0000,0.0000,0.0000,nothing
107316,-0.1786,0.0724,-0.0244,0.3029,1.2103,-9.7699,1.8671,7.1422,172.6153,0.0000,0.0000,0.0000,0.0000,0.0000,nothing
107432,-0.2065,0.0667,0.0184,0.3508,1.2103,-9.7328,1.8852,7.1364,172.6163,0.0000,0.0000,0.0000,0.0000,0.0000,nothing
107548,-0.1949,0.0528,-0.0101,0.3059,1.2361,-9.7471,1.8750,7.1451,172.6105,0.0000,0.0000,0.0000,0.0000,0.0000,nothing
107664,-0.1858,0.0604,0.0555,0.3166,1.2055,-9.7388,1.8723,7.1359,172.6201,0.0000,0.0000,0.0000,0.0000,0.0000,nothing
107780,-0.2052,0.0582,-0.0158,0.3448,1.2043,-9.7238,1.8866,7.1279,172.6241,0.0000,0.0000,0.0000,0.0000,0.0000,nothing
107896,-0.1891,0.0703,0.0404,0.3119,1.2361,-9.7537,1.8796,7.1370,172.6171,0.0000,0.0000,0.0000,0.0000,0.0000,nothing
108012,-0.1945,0.0795,-0.0189,0.3430,1.2235,-9.7657,1.8912,7.1370,172.6142,0.0000,0.0000,0.0000,0.0000,0.0000,nothing
108128,-0.2165,0.0698,-0.0185,0.3119,1.2289,-9.7657,1.8836,7.1401,172.6131,0.0000,0.0000,0.0000,0.0000,0.0000,nothing
108244,-0.1922,0.0547,0.0339,0.3202,1.2103,-9.7358,1.8822,7.1344,172.6190,0.0000,0.0000,0.0000,0.0000,0.0000,nothing
108360,-0.1864,0.0789,-0.0174,0.3095,1.1834,-9.7178,1.8750,7.1149,172.6397,0.0000,0.0000,0.0000,0.0000,0.0000,nothing
108476,-0.2224,0.0713,0.0085,0.2921,1.2043,-9.7436,1.8580,7.1078,172.6510,0.0000,0.0000,0.0000,0.0000,0.0000,nothing
108592,-0.2282,0.0687,-0.0301,0.3166,1.2606,-9.7334,1.8569,7.1345,172.6253,0.0000,0.0000,0.0000,0.0000,0.0000,nothing
108708,-0.2665,0.0661,0.0065,0.3286,1.3647,-9.7148,1.8631,7.2203,172.5408,0.0000,0.0000,0.0000,0.0000,0.0000,nothing
108824,-0.2162,0.1047,0.0353,0.2346,1.2390,-9.7567,1.8134,7.2218,172.5517,0.0000,0.0000,0.0000,0.0000,0.0000,nothing
108940,-0.1832,0.0684,0.0260,0.3286,1.1540,-9.7184,1.8243,7.1766,172.5928,0.0000,0.0000,0.0000,0.0000,0.0000,nothing
109056,-0.1665,0.0436,0.0209,0.3029,1.1918,-9.7663,1.8182,7.1543,172.6160,0.0000,0.0000,0.0000,0.0000,0.0000,nothing
109172,-0.1682,0.0718,0.0637,0.3208,1.2061,-9.7280,1.8239,7.1452,172.6233,0.0000,0.0000,0.0000,0.0000,0.0000,nothing
109288,-0.1701,0.0743,-0.0315,0.3322,1.2492,-9.7447,1.8351,7.1608,172.6054,0.0000,0.0000,0.0000,0.0000,0.0000,nothing
109404,-0.2026,0.0639,0.0683,0.3196,1.2019,-9.7471,1.8380,7.1473,172.6177,0.0000,0.0000,0.0000,0.0000,0.0000,nothing
109520,-0.1999,0.0902,0.0165,0.2873,1.1959,-9.7346,1.8221,7.1327,172.6359,0.0000,0.0000,0.0000,0.0000,0.0000,nothing
109636,-0.2020,0.0725,0.0056,0.3268,1.2522,-9.7412,1.8304,7.1516,172.6155,0.0000,0.0000,0.0000,0.0000,0.0000,nothing
109752,-0.2183,0.0834,0.0706,0.3567,1.2127,-9.7483,1.8554,7.1451,172.6155,0.0000,0.0000,0.0000,0.0000,0.0000,nothing
109868,-0.1955,0.0687,-0.0200,0.3232,1.2289,-9.7424,1.8584,7.1491,172.6109,0.0000,0.0000,0.0000,0.0000,0.0000,nothing
109984,-0.1831,0.0697,0.0192,0.3591,1.1672,-9.7388,1.8822,7.1172,172.6356,0.0000,0.0000,0.0000,0.0000,0.0000,nothing
110100,-0.1873,0.0680,0.0573,0.3244,1.1953,-9.7471,1.8832,7.1042,172.6479,0.0000,0.0000,0.0000,0.0000,0.0000,nothing
110216,-0.1978,0.0694,0.0290,0.3394,1.2013,-9.7394,1.8930,7.0966,172.6528,0.0000,0.0000,0.0000,0.0000,0.0000,nothing
110332,-0.1605,0.0412,-0.0187,0.2879,1.2552,-9.7436,1.8715,7.1207,172.6350,0.0000,0.0000,0.0000,0.0000,0.0000,nothing
110448,-0.1990,0.0784,-0.1266,0.3675,1.2708,-9.7597,1.8983,7.1500,172.5997,0.0000,0.0000,0.0000,0.0000,0.0000,nothing
110564,-0.2222,0.0544,0.0214,0.3148,1.1762,-9.7130,1.8928,7.1252,172.6252,0.0000,0.0000,0.0000,0.0000,0.0000,nothing
110680,-0.1997,0.0695,0.0803,0.3208,1.1852,-9.7567,1.8905,7.1049,172.6454,0.0000,0.0000,0.0000,0.0000,0.0000,nothing
110796,-0.1733,0.0578,0.0337,0.3148,1.1971,-9.7118,1.8858,7.0968,172.6545,0.0000,0.0000,0.0000,0.0000,0.0000,nothing
110912,-0.1853,0.0748,0.0444,0.3615,1.1894,-9.7765,1.9075,7.0802,172.6648,0.0000,0.0000,0.0000,0.0000,0.0000,nothing
111028,-0.1801,0.0877,0.0507,0.2867,1.1995,-9.7352,1.8842,7.0743,172.6766,0.0000,0.0000,0.0000,0.0000,0.0000,nothing
111144,-0.1932,0.0271,0.0165,0.3274,1.2426,-9.7160,1.8872,7.0953,172.6555,0.0000,0.0000,0.0000,0.0000,0.0000,nothing
111260,-0.2095,0.0866,-0.0184,0.2945,1.2031,-9.6831,1.8715,7.0937,172.6611,0.0000,0.0000,0.0000,0.0000,0.0000,nothing
111376,-0.1838,0.0435,-0.0033,0.3172,1.2211,-9.7364,1.8695,7.0988,172.6567,0.0000,0.0000,0.0000,0.0000,0.0000,nothing
111492,-0.1720,0.0669,-0.0393,0.3388,1.2325,-9.7268,1.8804,7.1106,172.6424,0.0000,0.0000,0.0000,0.0000,0.0000,nothing
111608,-0.1674,0.0712,-0.0299,0.3214,1.2408,-9.7765,1.8792,7.1226,172.6312,0.0000,0.0000,0.0000,0.0000,0.0000,nothing
111724,-0.1970,0.0534,0.0454,0.3573,1.2229,-9.7136,1.9003,7.1274,172.6211,0.0000,0.0000,0.0000,0.0000,0.0000,nothing
111840,-0.2114,0.0582,-0.0668,0.2825,1.2648,-9.7052,1.8757,7.1567,172.5991,0.0000,0.0000,0.0000,0.0000,0.0000,nothing
111956,-0.2226,0.0688,0.0379,0.3196,1.3695,-9.7178,1.8747,7.2429,172.5159,0.0000,0.0000,0.0000,0.0000,0.0000,nothing
112072,-0.1851,0.0414,0.0540,0.3340,1.1343,-9.7884,1.8814,7.1789,172.5761,0.0000,0.0000,0.0000,0.0000,0.0000,nothing
112188,-0.1686,0.0630,0.0474,0.3550,1.1313,-9.7394,1.9005,7.1232,172.6251,0.0000,0.0000,0.0000,0.0000,0.0000,nothing
112304,-0.1752,0.0826,0.0526,0.2281,1.2684,-9.7184,1.8439,7.1543,172.6095,0.0000,0.0000,0.0000,0.0000,0.0000,nothing
112420,-0.1761,0.0761,0.0833,0.4573,1.2390,-9.7573,1.9259,7.1618,172.5811,0.0000,0.0000,0.0000,0.0000,0.0000,nothing
112536,-0.2511,0.0847,-0.0083,0.3585,1.1744,-9.8238,1.9410,7.1267,172.6111,0.0000,0.0000,0.0000,0.0000,0.0000,nothing
112652,-0.2230,0.0894,-0.0209,0.6578,1.4330,-9.7154,2.1304,7.2517,172.4386,0.0000,0.0000,0.0000,0.0000,0.0000,nothing
112768,-0.5044,0.1051,0.1012,0.1502,1.0768,-9.7477,2.0054,7.1572,172.5644,0.0000,0.0000,0.0000,0.0000,0.0000,nothing
112884,0.0308,-0.1018,-0.0654,0.0239,0.8153,-9.8764,1.8174,6.9118,172.8510,0.0000,0.0000,0.0000,0.0000,0.0000,nothing
113000,-0.0374,0.0604,-0.0286,0.3783,1.6688,-9.7340,1.8554,7.1940,172.5681,0.0000,0.0000,0.0000,0.0000,0.0000,nothing
113116,-0.3925,0.1491,-0.0083,0.4441,1.3791,-9.6196,1.9308,7.2887,172.4572,0.0000,0.0000,0.0000,0.0000,0.0000,nothing
113232,-0.1834,0.1142,0.0221,0.3137,0.9445,-9.7627,1.9210,7.1124,172.6302,0.0000,0.0000,0.0000,0.0000,0.0000,nothing
113348,-0.0560,0.0444,-0.0055,0.4310,1.2229,-9.7519,1.9800,7.1152,172.6116,0.0000,0.0000,0.0000,0.0000,0.0000,nothing
113464,-0.2203,0.0768,-0.0188,0.3885,1.2732,-9.7477,2.0084,7.1473,172.5730,0.0000,0.0000,0.0000,0.0000,0.0000,nothing
113580,-0.2140,0.0560,0.0080,0.3280,1.2019,-9.7412,1.9989,7.1356,172.5869,0.0000,0.0000,0.0000,0.0000,0.0000,nothing
113696,-0.1770,0.0858,0.0027,0.3310,1.2319,-9.7878,1.9912,7.1390,172.5857,0.0000,0.0000,0.0000,0.0000,0.0000,nothing
113812,-0.1996,0.0538,0.0473,0.3113,1.1840,-9.7196,1.9742,7.1193,172.6093,0.0000,0.0000,0.0000,0.0000,0.0000,nothing
113928,-0.2026,0.0626,-0.0244,0.3077,1.2654,-9.7525,1.9560,7.1463,172.5882,0.0000,0.0000,0.0000,0.0000,0.0000,nothing
114044,-0.2004,0.0819,-0.0266,0.3268,1.2235,-9.7274,1.9513,7.1482,172.5876,0.0000,0.0000,0.0000,0.0000,0.0000,nothing
114160,-0.1768,0.0626,0.0000,0.2676,1.1684,-9.7699,1.9119,7.1150,172.6300,0.0000,0.0000,0.0000,0.0000,0.0000,nothing
114276,-0.1744,0.0583,0.0162,0.3621,1.1511,-9.7424,1.9321,7.0769,172.6614,0.0000,0.0000,0.0000,0.0000,0.0000,nothing
114392,-0.1741,0.0371,-0.0176,0.3705,1.1894,-9.7489,1.9549,7.0643,172.6675,0.0000,0.0000,0.0000,0.0000,0.0000,nothing
114508,-0.1626,0.0607,0.0787,0.2867,1.2672,-9.7232,1.9270,7.1000,172.6405,0.0000,0.0000,0.0000,0.0000,0.0000,nothing
114624,-0.1967,0.0733,0.0166,0.3430,1.2331,-9.7585,1.9340,7.1098,172.6292,0.0000,0.0000,0.0000,0.0000,0.0000,nothing
114740,-0.2117,0.0697,0.0241,0.3107,1.2325,-9.7483,1.9217,7.1190,172.6236,0.0000,0.0000,0.0000,0.0000,0.0000,nothing
114856,-0.2326,0.0791,-0.0368,0.3352,1.2145,-9.7495,1.9249,7.1168,172.6249,0.0000,0.0000,0.0000,0.0000,0.0000,nothing
114972,-0.2060,0.0796,-0.0003,0.3388,1.2420,-9.7430,1.9300,7.1311,172.6097,0.0000,0.0000,0.0000,0.0000,0.0000,nothing
115088,-0.1756,0.0718,0.0541,0.3143,1.2384,-9.7406,1.9203,7.1422,172.6015,0.0000,0.0000,0.0000,0.0000,0.0000,nothing
115204,-0.1921,0.0660,-0.0582,0.3322,1.2295,-9.7400,1.9221,7.1470,172.5964,0.0000,0.0000,0.0000,0.0000,0.0000,nothing
115320,-0.2214,0.1092,0.0048,0.3190,1.1959,-9.7316,1.9162,7.1326,172.6119,0.0000,0.0000,0.0000,0.0000,0.0000,nothing
115436,-0.1850,0.0483,-0.0473,0.3478,1.0756,-9.7286,1.9281,7.0501,172.6884,0.0000,0.0000,0.0000,0.0000,0.0000,nothing
115552,-0.2297,0.0830,0.0481,0.2819,1.2438,-9.7908,1.8988,7.0689,172.6780,0.0000,0.0000,0.0000,0.0000,0.0000,nothing
115668,-0.1988,0.0863,-0.0074,0.3897,1.2013,-9.7160,1.9367,7.0663,172.6705,0.0000,0.0000,0.0000,0.0000,0.0000,nothing
115784,-0.2054,0.0811,0.0106,0.3370,1.2121,-9.7142,1.9402,7.0705,172.6655,0.0000,0.0000,0.0000,0.0000,0.0000,nothing
115900,-0.2001,0.0683,0.0243,0.2933,1.2325,-9.7501,1.9171,7.0836,172.6590,0.0000,0.0000,0.0000,0.0000,0.0000,nothing
116016,-0.1981,0.0761,0.0180,0.3544,1.1798,-9.7747,1.9316,7.0629,172.6751,0.0000,0.0000,0.0000,0.0000,0.0000,nothing
116132,-0.1982,0.0695,-0.0458,0.4124,1.1971,-9.7442,1.9790,7.0564,172.6686,0.0000,0.0000,0.0000,0.0000,0.0000,nothing
116248,-0.1842,0.0902,-0.0300,0.2095,1.1930,-9.7124,1.9040,7.0510,172.6940,0.0000,0.0000,0.0000,0.0000,0.0000,nothing
116364,-0.1463,0.0619,-0.0282,0.3089,1.1690,-9.7023,1.8946,7.0326,172.7141,0.0000,0.0000,0.0000,0.0000,0.0000,nothing
116480,-0.1861,0.0716,0.0206,0.3083,1.2097,-9.7549,1.8848,7.0359,172.7135,0.0000,0.0000,0.0000,0.0000,0.0000,nothing
116596,-0.1644,0.0500,0.0267,0.3502,1.1433,-9.7531,1.9005,7.0005,172.7436,0.0000,0.0000,0.0000,0.0000,0.0000,nothing
116712,-0.2046,0.0992,0.0080,0.2664,1.2361,-9.7352,1.8660,7.0238,172.7302,0.0000,0.0000,0.0000,0.0000,0.0000,nothing
116828,-0.2128,0.0684,0.0383,0.3125,1.2414,-9.7262,1.8619,7.0484,172.7074,0.0000,0.0000,0.0000,0.0000,0.0000,nothing
116944,-0.1960,0.0352,-0.0300,0.3789,1.2037,-9.7645,1.8963,7.0458,172.7010,0.0000,0.0000,0.0000,0.0000,0.0000,nothing
117060,-0.1778,0.0631,0.0119,0.3256,1.2414,-9.7130,1.8972,7.0691,172.6782,0.0000,0.0000,0.0000,0.0000,0.0000,nothing
117176,-0.2037,0.0683,0.0164,0.2843,1.2181,-9.7735,1.8727,7.0724,172.6814,0.0000,0.0000,0.0000,0.0000,0.0000,nothing
117292,-0.1994,0.0468,0.0259,0.3316,1.1912,-9.7220,1.8794,7.0633,172.6885,0.0000,0.0000,0.0000,0.0000,0.0000,nothing
117408,-0.1922,0.0553,0.0224,0.3406,1.1672,-9.7603,1.8899,7.0384,172.7098,0.0000,0.0000,0.0000,0.0000,0.0000,nothing
117524,-0.1711,0.0564,-0.0273,0.3017,1.2157,-9.7675,1.8764,7.0437,172.7081,0.0000,0.0000,0.0000,0.0000,0.0000,nothing
117640,-0.1800,0.0667,0.0184,0.3466,1.2025,-9.7136,1.8915,7.0446,172.7033,0.0000,0.0000,0.0000,0.0000,0.0000,nothing
117756,-0.1879,0.0682,0.0626,0.2771,1.2612,-9.7436,1.8639,7.0774,172.6788,0.0000,0.0000,0.0000,0.0000,0.0000,nothing
117872,-0.1982,0.0534,-0.0464,0.3597,1.2187,-9.7483,1.8873,7.0818,172.6685,0.0000,0.0000,0.0000,0.0000,0.0000,nothing
117988,-0.2274,0.0852,0.0098,0.4459,1.1930,-9.7633,1.9583,7.0696,172.6615,0.0000,0.0000,0.0000,0.0000,0.0000,nothing
118104,-0.2101,0.0575,0.0671,0.2849,1.2229,-9.7394,1.9287,7.0780,172.6613,0.0000,0.0000,0.0000,0.0000,0.0000,nothing
118220,-0.2172,0.0679,0.0687,0.2316,1.1636,-9.7866,1.8703,7.0480,172.7056,0.0000,0.0000,0.0000,0.0000,0.0000,nothing
118336,-0.1956,0.0604,-0.0177,0.3657,1.2133,-9.7358,1.8967,7.0531,172.6938,0.0000,0.0000,0.0000,0.0000,0.0000,nothing
118452,-0.1843,0.0862,0.0113,0.2873,1.2905,-9.7424,1.8745,7.1020,172.6523,0.0000,0.0000,0.0000,0.0000,0.0000,nothing
118568,-0.2465,0.0705,-0.0164,0.3771,1.1983,-9.7621,1.9067,7.0911,172.6544,0.0000,0.0000,0.0000,0.0000,0.0000,nothing
118684,-0.2221,0.0836,0.0414,0.3412,1.2037,-9.7238,1.9154,7.0873,172.6559,0.0000,0.0000,0.0000,0.0000,0.0000,nothing
118800,-0.2127,0.0615,-0.0010,0.2861,1.2187,-9.7214,1.8912,7.0928,172.6569,0.0000,0.0000,0.0000,0.0000,0.0000,nothing
118916,-0.2102,0.0744,0.0153,0.2729,1.1726,-9.7669,1.8610,7.0678,172.6888,0.0000,0.0000,0.0000,0.0000,0.0000,nothing
119032,-0.2184,0.0410,0.0202,0.3274,1.1540,-9.7543,1.8658,7.0354,172.7190,0.0000,0.0000,0.0000,0.0000,0.0000,nothing
119148,-0.1989,0.0450,0.0258,0.2999,1.2109,-9.7364,1.8543,7.0405,172.7170,0.0000,0.0000,0.0000,0.0000,0.0000,nothing
119264,-0.1876,0.0489,0.0101,0.2083,1.2319,-9.8627,1.7882,7.0483,172.7261,0.0000,0.0000,0.0000,0.0000,0.0000,nothing
119380,-0.0612,0.0653,0.0410,0.4358,1.2762,-9.6873,1.8644,7.0931,172.6636,0.0000,0.0000,0.0000,0.0000,0.0000,nothing
119496,-0.2067,0.0819,0.0324,0.3496,1.3432,-9.7214,1.8820,7.1698,172.5848,0.0000,0.0000,0.0000,0.0000,0.0000,nothing
119612,-0.2928,0.0394,-0.0005,0.3789,1.4258,-9.7699,1.9137,7.2831,172.4671,0.0000,0.0000,0.0000,0.0000,0.0000,nothing
119728,-0.3145,0.0736,0.0693,0.2598,1.2468,-9.7597,1.8735,7.2825,172.4778,0.0000,0.0000,0.0000,0.0000,0.0000,nothing
119844,-0.2224,0.1226,-0.0164,0.1796,1.2432,-9.6771,1.7922,7.2863,172.4942,0.0000,0.0000,0.0000,0.0000,0.0000,nothing
119960,-0.1365,0.0630,0.0248,0.4771,1.1265,-9.6945,1.8923,7.2201,172.5335,0.0000,0.0000,0.0000,0.0000,0.0000,nothing
120076,-0.1564,0.0660,0.0643,0.1502,1.2821,-9.7621,1.7903,7.2464,172.5334,0.0000,0.0000,0.0000,0.0000,0.0000,nothing
120192,-0.2003,0.0638,0.0138,0.2706,1.2732,-9.7627,1.7686,7.2645,172.5210,0.0000,0.0000,0.0000,0.0000,0.0000,nothing
120308,-0.2348,0.0755,0.0029,0.2131,1.2366,-9.7477,1.7160,7.2610,172.5369,0.0000,0.0000,0.0000,0.0000,0.0000,nothing
120424,-0.2360,0.0874,0.0702,0.4549,1.1403,-9.7711,1.8093,7.1998,172.5741,0.0000,0.0000,0.0000,0.0000,0.0000,nothing
120540,-0.1866,0.0541,-0.0380,0.2981,1.2133,-9.7884,1.8015,7.1860,172.5893,0.0000,0.0000,0.0000,0.0000,0.0000,nothing
120656,-0.2086,0.0990,0.0526,0.2867,1.2366,-9.7274,1.7888,7.1916,172.5870,0.0000,0.0000,0.0000,0.0000,0.0000,nothing
120772,-0.1910,0.0608,0.0350,0.2718,1.1636,-9.7549,1.7684,7.1524,172.6300,0.0000,0.0000,0.0000,0.0000,0.0000,nothing
120888,-0.2112,0.0517,0.0123,0.3981,1.2169,-9.7459,1.8237,7.1484,172.6203,0.0000,0.0000,0.0000,0.0000,0.0000,nothing
121004,-0.1759,0.0795,0.0098,0.2987,1.1977,-9.7412,1.8156,7.1342,172.6361,0.0000,0.0000,0.0000,0.0000,0.0000,nothing
121120,-0.1941,0.0543,-0.0309,0.3915,1.2636,-9.7687,1.8618,7.1573,172.6021,0.0000,0.0000,0.0000,0.0000,0.0000,nothing
121236,-0.2241,0.0558,0.0922,0.1622,1.2486,-9.7148,1.7708,7.1739,172.6086,0.0000,0.0000,0.0000,0.0000,0.0000,nothing
121352,-0.2423,0.0592,0.0314,0.3526,1.2007,-9.7124,1.7999,7.1608,172.6141,0.0000,0.0000,0.0000,0.0000,0.0000,nothing
121468,-0.2502,0.0499,0.0203,0.3400,1.2384,-9.7358,1.8183,7.1693,172.6014,0.0000,0.0000,0.0000,0.0000,0.0000,nothing
121584,-0.2264,0.0679,0.0260,0.2747,1.2337,-9.7400,1.7968,7.1739,172.6022,0.0000,0.0000,0.0000,0.0000,0.0000,nothing
121700,-0.2333,0.0716,-0.0331,0.3316,1.1427,-9.7322,1.8109,7.1259,172.6453,0.0000,0.0000,0.0000,0.0000,0.0000,nothing
121816,-0.2214,0.0650,0.0472,0.2299,1.2163,-9.7106,1.7645,7.1271,172.6556,0.0000,0.0000,0.0000,0.0000,0.0000,nothing
121932,-0.1947,0.0742,0.0346,0.3873,1.1552,-9.7549,1.8139,7.0892,172.6801,0.0000,0.0000,0.0000,0.0000,0.0000,nothing
122048,-0.2060,0.0573,0.0056,0.2999,1.2289,-9.7406,1.8075,7.0990,172.6722,0.0000,0.0000,0.0000,0.0000,0.0000,nothing
122164,-0.2260,0.1050,-0.0375,0.2957,1.2145,-9.7340,1.7994,7.1000,172.6733,0.0000,0.0000,0.0000,0.0000,0.0000,nothing
122280,-0.1873,0.0729,0.0134,0.3304,1.2438,-9.7890,1.8113,7.1138,172.6570,0.0000,0.0000,0.0000,0.0000,0.0000,nothing
122396,-0.2348,0.0799,0.0473,0.2334,1.2139,-9.7519,1.7662,7.1118,172.6700,0.0000,0.0000,0.0000,0.0000,0.0000,nothing
122512,-0.2135,0.0661,0.0041,0.3424,1.1499,-9.6586,1.7910,7.0794,172.6953,0.0000,0.0000,0.0000,0.0000,0.0000,nothing
122628,-0.2179,0.0568,-0.0076,0.2915,1.2091,-9.7406,1.7820,7.0787,172.6982,0.0000,0.0000,0.0000,0.0000,0.0000,nothing
122744,-0.1835,0.0320,0.0030,0.3113,1.1690,-9.7669,1.7850,7.0530,172.7224,0.0000,0.0000,0.0000,0.0000,0.0000,nothing
122860,-0.2278,0.0709,0.0286,0.2676,1.2402,-9.7843,1.7618,7.0699,172.7117,0.0000,0.0000,0.0000,0.0000,0.0000,nothing
122976,-0.1963,0.0667,0.0323,0.3436,1.1696,-9.7322,1.7864,7.0478,172.7271,0.0000,0.0000,0.0000,0.0000,0.0000,nothing
123092,-0.1750,0.0495,-0.0007,0.4304,1.1953,-9.7801,1.8581,7.0392,172.7173,0.0000,0.0000,0.0000,0.0000,0.0000,nothing
123208,-0.1981,0.0605,0.0179,0.2257,1.2528,-9.7376,1.8040,7.0682,172.7029,0.0000,0.0000,0.0000,0.0000,0.0000,nothing
123324,-0.1755,0.0612,-0.0446,0.3035,1.2157,-9.7471,1.8006,7.0720,172.7001,0.0000,0.0000,0.0000,0.0000,0.0000,nothing
