timestamp_ms,gyro_x,gyro_y,gyro_z,accel_x,accel_y,accel_z,roll,pitch,yaw,adc0,adc1,adc2,adc3,adc4,Label
410540,-0.2004,0.0753,0.0067,0.3250,1.2366,-9.7136,1.8433,6.9244,172.8322,0.0000,0.0000,0.0000,0.0000,0.0000,nothing
410656,-0.2243,0.1031,-0.0195,0.3334,1.2785,-9.6975,1.8542,6.9825,172.7732,0.0000,0.0000,0.0000,0.0000,0.0000,nothing
410772,-0.2448,0.0772,-0.0397,0.2556,1.1762,-9.7525,1.8178,6.9717,172.7930,0.0000,0.0000,0.0000,0.0000,0.0000,nothing
410888,-0.2709,0.0830,-0.0151,0.3609,1.2115,-9.7298,1.8468,6.9838,172.7738,0.0000,0.0000,0.0000,0.0000,0.0000,nothing
411004,-0.1805,0.0826,0.0421,0.3190,1.1882,-9.7262,1.8486,6.9815,172.7755,0.0000,0.0000,0.0000,0.0000,0.0000,nothing
411120,-0.2020,0.0705,0.0694,0.2400,1.2007,-9.7567,1.8035,6.9848,172.7839,0.0000,0.0000,0.0000,0.0000,0.0000,nothing
411236,-0.2057,0.0078,-0.0172,0.3508,1.1977,-9.7190,1.8283,6.9884,172.7741,0.0000,0.0000,0.0000,0.0000,0.0000,nothing
411352,-0.2215,0.0369,0.0559,0.2879,1.1744,-9.6969,1.8143,6.9798,172.7859,0.0000,0.0000,0.0000,0.0000,0.0000,nothing
411468,-0.2132,0.0573,0.0098,0.3196,1.2372,-9.7483,1.8192,7.0049,172.7605,0.0000,0.0000,0.0000,0.0000,0.0000,nothing
411584,-0.2898,0.0956,0.0194,0.2472,1.8316,-9.8501,1.7782,7.3642,172.4219,0.0000,0.0000,0.0000,0.0000,0.0000,หนึ่ง
411700,-0.2251,0.0095,-0.0097,0.3400,0.9050,-9.6711,1.8007,7.1641,172.6107,0.0000,0.0000,0.0000,0.0000,0.0000,หนึ่ง
411816,-0.2432,0.0708,-0.0980,0.3597,1.1295,-9.7340,1.8308,7.1092,172.6565,0.0000,0.0000,0.0000,0.0000,0.0000,หนึ่ง
411932,-0.2522,0.0643,0.0153,0.1718,1.0451,-9.7495,1.7482,7.0102,172.7730,0.0000,0.0000,0.0000,0.0000,0.0000,หนึ่ง
412048,-0.1140,0.0221,-0.0206,0.3113,1.0218,-9.7465,1.7553,6.9074,172.8709,0.0000,0.0000,0.0000,0.0000,0.0000,หนึ่ง
412164,-0.1106,0.0384,-0.0417,0.3178,1.0900,-9.7106,1.7661,6.8570,172.9171,0.0000,0.0000,0.0000,0.0000,0.0000,หนึ่ง
412280,-0.1775,0.0913,0.0638,0.3765,1.4940,-9.6783,1.8097,7.0480,172.7211,0.0000,0.0000,0.0000,0.0000,0.0000,หนึ่ง
412396,-0.2688,0.0885,0.0438,0.3196,1.4330,-9.8004,1.8136,7.1758,172.5962,0.0000,0.0000,0.0000,0.0000,0.0000,หนึ่ง
412512,-0.3046,0.1521,0.0919,0.3322,1.3432,-9.6669,1.8272,7.2484,172.5224,0.0000,0.0000,0.0000,0.0000,0.0000,หนึ่ง
412628,-0.2350,0.0583,-0.0010,0.3657,1.1558,-9.7172,1.8584,7.2016,172.5601,0.0000,0.0000,0.0000,0.0000,0.0000,หนึ่ง
412744,-0.2146,0.0466,0.0042,0.2520,1.1708,-9.7005,1.8205,7.1695,172.6006,0.0000,0.0000,0.0000,0.0000,0.0000,หนึ่ง
412860,-0.1801,0.0615,-0.0026,0.3747,1.2762,-9.7573,1.8566,7.1973,172.5647,0.0000,0.0000,0.0000,0.0000,0.0000,หนึ่ง
412976,-0.1824,0.1059,-0.0609,0.3472,1.1858,-9.7358,1.8737,7.1715,172.5853,0.0000,0.0000,0.0000,0.0000,0.0000,หนึ่ง
413092,-0.2573,0.0717,-0.0654,0.3352,1.3773,-9.7753,1.8809,7.2564,172.5013,0.0000,0.0000,0.0000,0.0000,0.0000,หนึ่ง
413208,-0.1624,0.0087,0.0924,0.3340,1.0978,-9.7256,1.8882,7.1746,172.5786,0.0000,0.0000,0.0000,0.0000,0.0000,break_time
413324,-0.1846,0.0416,-0.0596,0.3526,1.1271,-9.7358,1.9054,7.1171,172.6297,0.0000,0.0000,0.0000,0.0000,0.0000,break_time
413440,-0.1776,0.0603,0.0454,0.3705,1.2594,-9.7124,1.9315,7.1437,172.5972,0.0000,0.0000,0.0000,0.0000,0.0000,break_time
413556,-0.1964,0.0688,-0.0007,0.2741,1.2923,-9.7453,1.8980,7.1845,172.5665,0.0000,0.0000,0.0000,0.0000,0.0000,break_time
413672,-0.2394,0.0871,-0.0108,0.3627,1.2839,-9.7495,1.9195,7.2158,172.5306,0.0000,0.0000,0.0000,0.0000,0.0000,break_time
413788,-0.2210,0.0872,-0.0529,0.2729,1.2079,-9.6807,1.8880,7.2053,172.5489,0.0000,0.0000,0.0000,0.0000,0.0000,break_time
413904,-0.2534,0.0860,-0.0150,0.2334,1.1654,-9.7872,1.8347,7.1634,172.6030,0.0000,0.0000,0.0000,0.0000,0.0000,break_time
414020,-0.1853,0.0716,0.0665,0.3214,1.1505,-9.7124,1.8394,7.1224,172.6415,0.0000,0.0000,0.0000,0.0000,0.0000,break_time
414136,-0.1809,0.0834,-0.0378,0.3382,1.1648,-9.7573,1.8526,7.0905,172.6691,0.0000,0.0000,0.0000,0.0000,0.0000,break_time
414252,-0.1985,0.0706,0.0379,0.3071,1.2456,-9.7184,1.8469,7.1114,172.6503,0.0000,0.0000,0.0000,0.0000,0.0000,break_time
414368,-0.2417,0.0609,0.0847,0.2987,1.2809,-9.7322,1.8365,7.1498,172.6158,0.0000,0.0000,0.0000,0.0000,0.0000,break_time
414484,-0.2388,0.0697,0.0112,0.3304,1.2271,-9.6927,1.8465,7.1559,172.6073,0.0000,0.0000,0.0000,0.0000,0.0000,break_time
414600,-0.1366,0.0365,-0.0382,0.3226,1.0876,-9.7663,1.8499,7.0752,172.6845,0.0000,0.0000,0.0000,0.0000,0.0000,break_time
414716,-0.1052,0.0679,-0.0331,0.2897,1.1289,-9.7094,1.8347,7.0307,172.7315,0.0000,0.0000,0.0000,0.0000,0.0000,break_time
414832,-0.1464,0.0548,-0.0762,0.3597,1.2869,-9.7130,1.8615,7.0819,172.6751,0.0000,0.0000,0.0000,0.0000,0.0000,break_time
414948,-0.3585,0.1125,0.1039,0.2568,1.2337,-9.7430,1.8251,7.0951,172.6716,0.0000,0.0000,0.0000,0.0000,0.0000,break_time
415064,-0.2616,0.0932,-0.0070,0.3322,1.2259,-9.7292,1.8366,7.1033,172.6607,0.0000,0.0000,0.0000,0.0000,0.0000,break_time
415180,-0.2318,0.1007,0.0203,0.2640,1.2803,-9.7418,1.8068,7.1416,172.6311,0.0000,0.0000,0.0000,0.0000,0.0000,break_time
415296,-0.2339,0.1010,0.0274,0.3615,1.2726,-9.6789,1.8381,7.1758,172.5901,0.0000,0.0000,0.0000,0.0000,0.0000,break_time
415412,-0.1476,0.0551,-0.0511,0.3059,1.1193,-9.7591,1.8326,7.1121,172.6532,0.0000,0.0000,0.0000,0.0000,0.0000,break_time
415528,-0.1516,0.0750,0.0484,0.2700,1.1115,-9.7220,1.8075,7.0530,172.7168,0.0000,0.0000,0.0000,0.0000,0.0000,break_time
415644,-0.1378,0.0130,-0.0055,0.3801,1.2390,-9.6957,1.8493,7.0753,172.6846,0.0000,0.0000,0.0000,0.0000,0.0000,break_time
415760,-0.2252,0.0930,-0.0189,0.2921,1.1403,-9.7573,1.8347,7.0340,172.7283,0.0000,0.0000,0.0000,0.0000,0.0000,break_time
415876,-0.2159,0.0701,0.0375,0.3220,1.3552,-9.7005,1.8395,7.1254,172.6386,0.0000,0.0000,0.0000,0.0000,0.0000,break_time
415992,-0.2358,0.0908,0.0076,0.3035,1.1199,-9.7597,1.8325,7.0670,172.6969,0.0000,0.0000,0.0000,0.0000,0.0000,break_time
416108,-0.1741,0.0560,-0.0138,0.3137,1.1612,-9.7226,1.8327,7.0411,172.7220,0.0000,0.0000,0.0000,0.0000,0.0000,break_time
416224,-0.1444,0.0953,0.0188,0.3262,1.3031,-9.7274,1.8398,7.0996,172.6635,0.0000,0.0000,0.0000,0.0000,0.0000,nothing
416340,-0.2502,0.0791,0.0165,0.2580,1.2133,-9.7280,1.8066,7.1004,172.6711,0.0000,0.0000,0.0000,0.0000,0.0000,nothing
416456,-0.2049,0.0637,-0.0074,0.3633,1.2355,-9.7316,1.8381,7.1134,172.6506,0.0000,0.0000,0.0000,0.0000,0.0000,nothing
416572,-0.2000,0.0615,-0.0502,0.3089,1.2229,-9.7274,1.8347,7.1182,172.6468,0.0000,0.0000,0.0000,0.0000,0.0000,nothing
416688,-0.2008,0.0739,0.0236,0.3382,1.3564,-9.7447,1.8482,7.1986,172.5655,0.0000,0.0000,0.0000,0.0000,0.0000,nothing
416804,-0.2153,0.0784,-0.0447,0.3202,1.2462,-9.7052,1.8508,7.2100,172.5538,0.0000,0.0000,0.0000,0.0000,0.0000,nothing
416920,-0.2252,0.1429,0.0105,0.5339,0.9858,-9.5640,1.9814,7.0790,172.6462,0.0000,0.0000,0.0000,0.0000,0.0000,หนึ่ง
417036,-0.1254,-0.0297,-0.0575,0.4124,1.2247,-9.8106,2.0225,7.0821,172.6319,0.0000,0.0000,0.0000,0.0000,0.0000,หนึ่ง
417152,-0.2423,0.0285,0.0153,0.2233,1.2887,-9.7663,1.9498,7.1257,172.6097,0.0000,0.0000,0.0000,0.0000,0.0000,หนึ่ง
417268,-0.2477,0.1007,0.0030,0.3172,1.2133,-9.7005,1.9407,7.1257,172.6122,0.0000,0.0000,0.0000,0.0000,0.0000,หนึ่ง
417384,-0.2607,0.0731,0.0199,0.2508,1.1744,-9.7735,1.8924,7.0980,172.6516,0.0000,0.0000,0.0000,0.0000,0.0000,หนึ่ง
417500,-0.2273,0.0915,0.0383,0.2628,1.1594,-9.7537,1.8563,7.0658,172.6920,0.0000,0.0000,0.0000,0.0000,0.0000,หนึ่ง
417616,-0.2394,0.0864,-0.0312,0.3687,1.2797,-9.7256,1.8860,7.1083,172.6432,0.0000,0.0000,0.0000,0.0000,0.0000,หนึ่ง
417732,-0.2817,0.1257,0.0338,0.3460,1.3480,-9.6843,1.9000,7.1892,172.5614,0.0000,0.0000,0.0000,0.0000,0.0000,หนึ่ง
417848,-0.2631,0.0860,-0.0131,0.2999,1.2780,-9.7370,1.8849,7.2177,172.5377,0.0000,0.0000,0.0000,0.0000,0.0000,หนึ่ง
417964,-0.1808,0.0474,-0.0518,0.2897,1.2187,-9.7436,1.8654,7.2086,172.5515,0.0000,0.0000,0.0000,0.0000,0.0000,หนึ่ง
418080,-0.1635,0.0815,0.0699,0.4082,1.3755,-9.7358,1.9167,7.2914,172.4582,0.0000,0.0000,0.0000,0.0000,0.0000,หนึ่ง
418196,-0.3453,0.0808,-0.0026,0.2418,1.1439,-9.7956,1.8653,7.2279,172.5328,0.0000,0.0000,0.0000,0.0000,0.0000,หนึ่ง
418312,-0.2792,0.0735,0.0243,0.3573,1.5006,-9.6639,1.8880,7.3866,172.3733,0.0000,0.0000,0.0000,0.0000,0.0000,หนึ่ง
418428,-0.2920,0.0492,-0.0646,0.2442,1.0774,-9.7759,1.8414,7.2765,172.4917,0.0000,0.0000,0.0000,0.0000,0.0000,หนึ่ง
418544,-0.0915,0.0089,-0.0174,0.2370,1.0254,-9.7801,1.7953,7.1470,172.6287,0.0000,0.0000,0.0000,0.0000,0.0000,หนึ่ง
418660,0.0285,-0.0132,-0.0954,0.4310,1.1211,-9.7298,1.8676,7.0891,172.6666,0.0000,0.0000,0.0000,0.0000,0.0000,หนึ่ง
418776,-0.2322,0.0881,0.0155,0.3460,1.4892,-9.6981,1.8829,7.2527,172.5044,0.0000,0.0000,0.0000,0.0000,0.0000,หนึ่ง
418892,-0.3611,0.1399,0.0834,0.3627,1.3492,-9.7040,1.9066,7.3183,172.4348,0.0000,0.0000,0.0000,0.0000,0.0000,หนึ่ง
419008,-0.2378,0.0798,0.0164,0.3154,1.0445,-9.7388,1.9005,7.1985,172.5523,0.0000,0.0000,0.0000,0.0000,0.0000,หนึ่ง
419124,-0.3066,0.1043,0.0485,0.2837,1.7287,-9.6292,1.8768,7.4952,172.2708,0.0000,0.0000,0.0000,0.0000,0.0000,หนึ่ง
419240,-0.4326,0.1024,0.0285,0.2059,1.1582,-9.7160,1.8099,7.4255,172.3547,0.0000,0.0000,0.0000,0.0000,0.0000,หนึ่ง
419356,-0.0465,0.0061,-0.0138,0.2837,0.9416,-9.7226,1.7954,7.2365,172.5418,0.0000,0.0000,0.0000,0.0000,0.0000,หนึ่ง
419472,-0.0275,0.0329,-0.0130,0.3514,1.1959,-9.7292,1.8211,7.2132,172.5581,0.0000,0.0000,0.0000,0.0000,0.0000,หนึ่ง
419588,-0.4391,0.1061,0.0065,0.3244,1.5754,-9.5987,1.8301,7.4220,172.3532,0.0000,0.0000,0.0000,0.0000,0.0000,หนึ่ง
419704,-0.2653,0.0667,-0.0454,0.2179,1.0128,-9.7783,1.7739,7.2705,172.5139,0.0000,0.0000,0.0000,0.0000,0.0000,หนึ่ง
419820,-0.0811,0.0323,-0.0214,0.2586,1.0828,-9.7549,1.7474,7.1765,172.6116,0.0000,0.0000,0.0000,0.0000,0.0000,หนึ่ง
419936,-0.1321,0.0487,-0.0519,0.5579,1.1451,-9.8178,1.8971,7.1228,172.6264,0.0000,0.0000,0.0000,0.0000,0.0000,หนึ่ง
420052,-0.1805,0.0789,0.0226,0.0251,1.2989,-9.6879,1.7227,7.1743,172.6197,0.0000,0.0000,0.0000,0.0000,0.0000,หนึ่ง
420168,-0.2065,0.0769,0.0364,0.1856,1.2857,-9.7106,1.6590,7.2109,172.5987,0.0000,0.0000,0.0000,0.0000,0.0000,หนึ่ง
420284,-0.2179,0.0909,-0.0378,0.5267,1.1852,-9.6903,1.8016,7.1864,172.5889,0.0000,0.0000,0.0000,0.0000,0.0000,หนึ่ง
420400,-0.2357,0.0806,-0.0230,0.2712,1.2223,-9.7525,1.7794,7.1818,172.5988,0.0000,0.0000,0.0000,0.0000,0.0000,หนึ่ง
420516,-0.2116,0.0675,0.0360,0.2508,1.2133,-9.7046,1.7484,7.1761,172.6118,0.0000,0.0000,0.0000,0.0000,0.0000,หนึ่ง
420632,-0.2233,0.0619,0.0115,0.2735,1.2331,-9.7094,1.7337,7.1819,172.6096,0.0000,0.0000,0.0000,0.0000,0.0000,หนึ่ง
420748,-0.2338,0.0549,0.0432,0.4178,1.1804,-9.8046,1.8031,7.1494,172.6244,0.0000,0.0000,0.0000,0.0000,0.0000,หนึ่ง
420864,-0.2414,0.0412,0.0304,0.0215,1.0834,-9.7214,1.6359,7.0709,172.7405,0.0000,0.0000,0.0000,0.0000,0.0000,หนึ่ง
420980,-0.2409,0.0454,0.0064,0.1365,1.1050,-9.7831,1.5514,7.0080,172.8207,0.0000,0.0000,0.0000,0.0000,0.0000,หนึ่ง
421096,-0.0759,0.0744,0.0654,0.2843,1.1373,-9.6538,1.5637,6.9790,172.8463,0.0000,0.0000,0.0000,0.0000,0.0000,หนึ่ง
421212,-0.0196,0.0930,-0.0102,0.5926,1.2426,-9.6514,1.7549,7.0136,172.7681,0.0000,0.0000,0.0000,0.0000,0.0000,หนึ่ง
421328,-0.1680,0.0500,0.0529,0.3675,1.2714,-9.7627,1.7934,7.0539,172.7195,0.0000,0.0000,0.0000,0.0000,0.0000,หนึ่ง
421444,-0.2904,0.0675,0.0586,0.2843,1.2953,-9.7166,1.7802,7.1075,172.6707,0.0000,0.0000,0.0000,0.0000,0.0000,หนึ่ง
421560,-0.2729,0.0821,0.0365,0.2957,1.2642,-9.7064,1.7752,7.1385,172.6419,0.0000,0.0000,0.0000,0.0000,0.0000,หนึ่ง
421676,-0.2605,0.0628,0.0266,0.3532,1.1672,-9.7400,1.8039,7.1075,172.6649,0.0000,0.0000,0.0000,0.0000,0.0000,หนึ่ง
421792,-0.2138,0.0856,0.0248,0.3346,1.1636,-9.7340,1.8190,7.0780,172.6896,0.0000,0.0000,0.0000,0.0000,0.0000,หนึ่ง
421908,-0.1940,0.0673,-0.0579,0.3699,1.1864,-9.7669,1.8525,7.0623,172.6964,0.0000,0.0000,0.0000,0.0000,0.0000,หนึ่ง
422024,-0.2409,0.0374,-0.0314,0.2909,1.1780,-9.7238,1.8374,7.0465,172.7155,0.0000,0.0000,0.0000,0.0000,0.0000,หนึ่ง
422140,-0.2031,0.0882,-0.0532,0.2544,1.2552,-9.7376,1.8021,7.0762,172.6957,0.0000,0.0000,0.0000,0.0000,0.0000,หนึ่ง
422256,-0.2390,0.0769,0.0203,0.2604,1.1720,-9.6861,1.7748,7.0583,172.7198,0.0000,0.0000,0.0000,0.0000,0.0000,หนึ่ง
422372,-0.1813,0.0413,0.0248,0.3268,1.2355,-9.7388,1.7881,7.0751,172.7002,0.0000,0.0000,0.0000,0.0000,0.0000,หนึ่ง
422488,-0.2121,0.0746,0.0315,0.2855,1.1409,-9.7513,1.7758,7.0345,172.7426,0.0000,0.0000,0.0000,0.0000,0.0000,หนึ่ง
422604,-0.1906,0.0515,0.0379,0.3095,1.1810,-9.7292,1.7791,7.0228,172.7531,0.0000,0.0000,0.0000,0.0000,0.0000,หนึ่ง
422720,-0.1985,0.0680,-0.0511,0.3226,1.2013,-9.7376,1.7895,7.0235,172.7499,0.0000,0.0000,0.0000,0.0000,0.0000,หนึ่ง
422836,-0.2144,0.0638,-0.0240,0.3041,1.1846,-9.7178,1.7885,7.0158,172.7576,0.0000,0.0000,0.0000,0.0000,0.0000,หนึ่ง
422952,-0.1932,0.0586,0.0053,0.2735,1.1618,-9.7513,1.7692,6.9934,172.7841,0.0000,0.0000,0.0000,0.0000,0.0000,หนึ่ง
423068,-0.1894,0.0525,-0.0090,0.3256,1.2061,-9.7286,1.7825,7.0004,172.7740,0.0000,0.0000,0.0000,0.0000,0.0000,หนึ่ง
423184,-0.2162,0.0705,0.0288,0.3412,1.2157,-9.7202,1.8037,7.0128,172.7567,0.0000,0.0000,0.0000,0.0000,0.0000,หนึ่ง
423300,-0.2297,0.0841,0.0034,0.2873,1.2420,-9.7070,1.7915,7.0403,172.7331,0.0000,0.0000,0.0000,0.0000,0.0000,หนึ่ง
423416,-0.2282,0.0608,0.0234,0.3113,1.2169,-9.7400,1.7940,7.0481,172.7249,0.0000,0.0000,0.0000,0.0000,0.0000,หนึ่ง
423532,-0.2038,0.0836,0.0056,0.2969,1.1864,-9.7124,1.7884,7.0394,172.7348,0.0000,0.0000,0.0000,0.0000,0.0000,หนึ่ง
423648,-0.1832,0.0743,-0.0003,0.3178,1.2085,-9.7376,1.7951,7.0426,172.7300,0.0000,0.0000,0.0000,0.0000,0.0000,หนึ่ง
423764,-0.2177,0.0672,0.0248,0.3089,1.2097,-9.7442,1.7958,7.0456,172.7269,0.0000,0.0000,0.0000,0.0000,0.0000,หนึ่ง
423880,-0.2057,0.0624,-0.0138,0.3340,1.2426,-9.7412,1.8110,7.0677,172.7017,0.0000,0.0000,0.0000,0.0000,0.0000,หนึ่ง
423996,-0.2384,0.0823,0.0258,0.2825,1.3659,-9.7226,1.7947,7.1604,172.6158,0.0000,0.0000,0.0000,0.0000,0.0000,หนึ่ง
424112,-0.2432,0.0731,0.0549,0.3603,1.2474,-9.7394,1.8255,7.1738,172.5952,0.0000,0.0000,0.0000,0.0000,0.0000,หนึ่ง
424228,-0.2440,0.0541,0.0294,0.2915,1.2606,-9.7424,1.8129,7.1934,172.5794,0.0000,0.0000,0.0000,0.0000,0.0000,หนึ่ง
424344,-0.2098,0.0379,-0.0748,0.5148,1.1355,-9.6633,1.9337,7.1437,172.5966,0.0000,0.0000,0.0000,0.0000,0.0000,หนึ่ง
424460,-0.1780,0.0799,0.0828,0.2095,1.2007,-9.6879,1.8635,7.1358,172.6224,0.0000,0.0000,0.0000,0.0000,0.0000,หนึ่ง
424576,-0.1820,0.0660,-0.0457,0.2622,1.2025,-9.7352,1.8302,7.1261,172.6402,0.0000,0.0000,0.0000,0.0000,0.0000,หนึ่ง
424692,-0.2136,0.0601,-0.0439,0.3927,1.1618,-9.7585,1.8762,7.0919,172.6617,0.0000,0.0000,0.0000,0.0000,0.0000,หนึ่ง
424808,-0.1836,0.0432,-0.0189,0.2137,1.2097,-9.7394,1.8132,7.0906,172.6789,0.0000,0.0000,0.0000,0.0000,0.0000,หนึ่ง
424924,-0.2210,0.0665,-0.0102,0.4022,1.2139,-9.7256,1.8669,7.0924,172.6635,0.0000,0.0000,0.0000,0.0000,0.0000,หนึ่ง
425040,-0.1883,0.0765,0.0300,0.3095,1.2450,-9.7400,1.8607,7.1113,172.6469,0.0000,0.0000,0.0000,0.0000,0.0000,หนึ่ง
425156,-0.2042,0.0811,0.0537,0.2598,1.1846,-9.6843,1.8273,7.0974,172.6688,0.0000,0.0000,0.0000,0.0000,0.0000,หนึ่ง
425272,-0.1014,0.0586,0.0108,0.3113,1.0750,-9.7543,1.8263,7.0161,172.7478,0.0000,0.0000,0.0000,0.0000,0.0000,หนึ่ง
425388,-0.1504,0.0615,-0.0225,0.3585,1.2606,-9.7052,1.8534,7.0540,172.7041,0.0000,0.0000,0.0000,0.0000,0.0000,หนึ่ง
425504,-0.2113,0.0855,0.0706,0.3915,1.4677,-9.7747,1.8953,7.2031,172.5492,0.0000,0.0000,0.0000,0.0000,0.0000,หนึ่ง
425620,-0.3542,0.1320,0.0324,0.2783,1.4898,-9.7190,1.8679,7.3543,172.4097,0.0000,0.0000,0.0000,0.0000,0.0000,หนึ่ง
425736,-0.3371,0.1129,0.0229,0.2496,1.2624,-9.6975,1.8274,7.3603,172.4138,0.0000,0.0000,0.0000,0.0000,0.0000,หนึ่ง
425852,-0.3224,0.0987,0.0369,0.3017,1.2534,-9.7112,1.8212,7.3593,172.4162,0.0000,0.0000,0.0000,0.0000,0.0000,หนึ่ง
425968,-0.1423,0.0911,-0.0233,0.2921,1.2642,-9.6771,1.8105,7.3673,172.4111,0.0000,0.0000,0.0000,0.0000,0.0000,หนึ่ง
426084,-0.3161,0.0799,-0.0264,0.3615,1.3737,-9.7489,1.8399,7.4324,172.3407,0.0000,0.0000,0.0000,0.0000,0.0000,หนึ่ง
426200,-0.3194,0.0952,0.0055,0.3657,1.2061,-9.7388,1.8694,7.3946,172.3701,0.0000,0.0000,0.0000,0.0000,0.0000,หนึ่ง
426316,-0.2064,0.0838,0.0533,0.0329,1.2127,-9.6681,1.7029,7.3706,172.4332,0.0000,0.0000,0.0000,0.0000,0.0000,หนึ่ง
426432,-0.2084,0.0742,-0.1321,1.0050,0.9709,-9.7783,2.1192,7.1981,172.4932,0.0000,0.0000,0.0000,0.0000,0.0000,หนึ่ง
426548,-0.1791,0.0770,-0.0202,-0.2526,1.4174,-9.6993,1.7599,7.3107,172.4782,0.0000,0.0000,0.0000,0.0000,0.0000,หนึ่ง
426664,-0.1959,0.0892,0.0723,0.2263,1.1654,-9.7280,1.7163,7.2627,172.5352,0.0000,0.0000,0.0000,0.0000,0.0000,หนึ่ง
426780,-0.2230,0.0665,-0.0425,0.5842,1.1265,-9.7843,1.8850,7.1919,172.5626,0.0000,0.0000,0.0000,0.0000,0.0000,หนึ่ง
426896,-0.2162,0.1140,0.0278,0.3442,1.2702,-9.7046,1.8979,7.2179,172.5342,0.0000,0.0000,0.0000,0.0000,0.0000,หนึ่ง
427012,-0.2020,0.0765,-0.0226,0.3131,1.1517,-9.7453,1.8908,7.1697,172.5827,0.0000,0.0000,0.0000,0.0000,0.0000,หนึ่ง
427128,-0.2155,0.0675,0.0237,0.1634,1.2331,-9.6915,1.7979,7.1777,172.5982,0.0000,0.0000,0.0000,0.0000,0.0000,หนึ่ง
427244,0.0048,0.0341,-0.0633,0.4376,0.7763,-9.6017,1.8772,6.9257,172.8220,0.0000,0.0000,0.0000,0.0000,0.0000,หนึ่ง
427360,-0.1275,0.0792,0.0106,0.4411,1.4312,-9.7172,1.9469,7.0708,172.6635,0.0000,0.0000,0.0000,0.0000,0.0000,หนึ่ง
427476,-0.3789,0.1088,0.0162,0.3304,1.4928,-9.6729,1.9457,7.2405,172.4999,0.0000,0.0000,0.0000,0.0000,0.0000,หนึ่ง
427592,-0.5084,0.1242,0.0323,0.2257,1.0080,-9.7507,1.8830,7.1064,172.6459,0.0000,0.0000,0.0000,0.0000,0.0000,หนึ่ง
427708,-0.0335,-0.0263,-0.0421,0.1568,0.8715,-9.7370,1.7868,6.9076,172.8629,0.0000,0.0000,0.0000,0.0000,0.0000,หนึ่ง
427824,0.0221,0.0222,-0.0335,0.4555,1.2372,-9.7412,1.8740,6.9401,172.8089,0.0000,0.0000,0.0000,0.0000,0.0000,หนึ่ง
427940,-0.1768,0.0852,0.0376,0.3328,1.3558,-9.6723,1.8818,7.0433,172.7072,0.0000,0.0000,0.0000,0.0000,0.0000,หนึ่ง
428056,-0.2403,0.0623,-0.0553,0.3041,1.3007,-9.7250,1.8711,7.1005,172.6546,0.0000,0.0000,0.0000,0.0000,0.0000,หนึ่ง
428172,-0.2646,0.0732,0.0552,0.3867,1.1912,-9.7262,1.9100,7.0881,172.6565,0.0000,0.0000,0.0000,0.0000,0.0000,หนึ่ง
428288,-0.2135,0.0646,0.0116,0.2640,1.1942,-9.7663,1.8726,7.0761,172.6778,0.0000,0.0000,0.0000,0.0000,0.0000,หนึ่ง
428404,-0.2125,0.0755,0.0044,0.3184,1.1965,-9.7292,1.8714,7.0693,172.6848,0.0000,0.0000,0.0000,0.0000,0.0000,หนึ่ง
428520,-0.2278,0.0653,0.0034,0.3436,1.1983,-9.7436,1.8847,7.0631,172.6873,0.0000,0.0000,0.0000,0.0000,0.0000,หนึ่ง
428636,-0.2194,0.0578,0.0168,0.3280,1.1654,-9.7214,1.8881,7.0400,172.7087,0.0000,0.0000,0.0000,0.0000,0.0000,หนึ่ง
428752,-0.2086,0.0643,0.0109,0.3202,1.2408,-9.7256,1.8864,7.0627,172.6872,0.0000,0.0000,0.0000,0.0000,0.0000,หนึ่ง
428868,-0.1423,0.0259,0.0371,0.3466,1.1361,-9.7298,1.9004,7.0220,172.7229,0.0000,0.0000,0.0000,0.0000,0.0000,nothing
428984,-0.1577,0.0450,-0.0330,0.3550,1.2211,-9.7106,1.9180,7.0361,172.7047,0.0000,0.0000,0.0000,0.0000,0.0000,nothing
429100,-0.2281,0.0609,-0.0315,0.3334,1.1780,-9.7268,1.9211,7.0226,172.7168,0.0000,0.0000,0.0000,0.0000,0.0000,nothing
429216,-0.1854,0.0639,0.0282,0.3837,1.3013,-9.6951,1.9536,7.0841,172.6488,0.0000,0.0000,0.0000,0.0000,0.0000,nothing
429332,-0.2169,0.0528,-0.0003,0.2071,1.1127,-9.7244,1.8795,7.0285,172.7221,0.0000,0.0000,0.0000,0.0000,0.0000,nothing
429448,-0.1351,0.0609,0.0110,0.3125,1.2229,-9.7591,1.8735,7.0395,172.7130,0.0000,0.0000,0.0000,0.0000,0.0000,nothing
429564,-0.1611,0.0598,-0.0615,0.2747,1.1026,-9.7148,1.8472,6.9829,172.7745,0.0000,0.0000,0.0000,0.0000,0.0000,nothing
429680,-0.0765,0.0477,-0.0234,0.4112,1.2001,-9.7424,1.9025,6.9863,172.7568,0.0000,0.0000,0.0000,0.0000,0.0000,nothing
429796,-0.2065,-0.0369,0.0065,0.1000,0.9847,-9.7513,1.7707,6.8645,172.9087,0.0000,0.0000,0.0000,0.0000,0.0000,หนึ่ง
429912,-0.0753,0.1215,-0.0031,0.5315,1.4653,-9.7358,1.9034,7.0337,172.7108,0.0000,0.0000,0.0000,0.0000,0.0000,หนึ่ง
430028,-0.2056,0.0999,-0.0285,0.2861,1.0756,-9.6304,1.8824,6.9681,172.7797,0.0000,0.0000,0.0000,0.0000,0.0000,หนึ่ง
430144,-0.2943,0.0763,0.0068,0.3508,1.3348,-9.7687,1.8981,7.0494,172.6971,0.0000,0.0000,0.0000,0.0000,0.0000,หนึ่ง
430260,-0.2105,0.0699,-0.0309,0.2676,1.1121,-9.7663,1.8641,6.9937,172.7597,0.0000,0.0000,0.0000,0.0000,0.0000,หนึ่ง
430376,-0.2153,0.0401,0.0645,0.2406,1.1427,-9.7376,1.8183,6.9634,172.8008,0.0000,0.0000,0.0000,0.0000,0.0000,หนึ่ง
430492,-0.1617,0.0911,-0.0202,0.3693,1.1451,-9.7082,1.8527,6.9394,172.8152,0.0000,0.0000,0.0000,0.0000,0.0000,break_time
430608,-0.1671,-0.0372,-0.0005,0.1281,0.9493,-9.8244,1.7412,6.7966,172.9819,0.0000,0.0000,0.0000,0.0000,0.0000,break_time
430724,-0.1899,0.0556,0.0097,0.4501,1.2115,-9.8244,1.8282,6.8195,172.9375,0.0000,0.0000,0.0000,0.0000,0.0000,break_time
430840,-0.1699,0.0892,0.0364,0.3532,1.0176,-9.7184,1.8523,6.7352,173.0125,0.0000,0.0000,0.0000,0.0000,0.0000,break_time
430956,-0.0023,0.0109,-0.0316,0.3340,1.1517,-9.7250,1.8624,6.7367,173.0083,0.0000,0.0000,0.0000,0.0000,0.0000,break_time
431073,-0.1361,0.0882,0.0131,0.2550,1.3366,-9.6621,1.8261,6.8497,172.9088,0.0000,0.0000,0.0000,0.0000,0.0000,break_time
431189,-0.2894,0.0822,0.0639,0.5214,1.3187,-9.7501,1.9473,6.9344,172.7948,0.0000,0.0000,0.0000,0.0000,0.0000,break_time
431305,-0.3205,0.0915,-0.0180,0.3460,1.1630,-9.8226,1.9530,6.9156,172.8113,0.0000,0.0000,0.0000,0.0000,0.0000,break_time
431421,-0.0534,0.0093,0.0450,0.3274,0.8745,-9.8525,1.9473,6.7298,172.9916,0.0000,0.0000,0.0000,0.0000,0.0000,break_time
431537,-0.1337,0.0444,-0.0577,0.3376,1.1211,-9.7849,1.9489,6.7100,173.0102,0.0000,0.0000,0.0000,0.0000,0.0000,break_time
431653,-0.1564,0.0663,0.0005,0.3059,1.2307,-9.7483,1.9323,6.7582,172.9685,0.0000,0.0000,0.0000,0.0000,0.0000,break_time
431769,-0.2874,0.0537,0.0290,0.2634,1.1738,-9.7573,1.8926,6.7681,172.9699,0.0000,0.0000,0.0000,0.0000,0.0000,break_time
431885,-0.2382,0.0781,0.0188,0.3436,1.1361,-9.7184,1.9044,6.7577,172.9767,0.0000,0.0000,0.0000,0.0000,0.0000,break_time
432001,-0.0620,0.0405,0.0146,0.2759,1.1499,-9.7406,1.8752,6.7549,172.9873,0.0000,0.0000,0.0000,0.0000,0.0000,break_time
432117,-0.1684,0.0810,-0.0269,0.4130,1.4384,-9.7040,1.9288,6.9217,172.8121,0.0000,0.0000,0.0000,0.0000,0.0000,break_time
432233,-0.3813,0.1198,0.0785,0.3137,1.3989,-9.6963,1.9193,7.0498,172.6911,0.0000,0.0000,0.0000,0.0000,0.0000,break_time
432349,-0.3547,0.1022,0.1162,0.2999,1.2319,-9.7531,1.9021,7.0643,172.6815,0.0000,0.0000,0.0000,0.0000,0.0000,break_time
432465,-0.1558,0.0469,-0.0363,0.2197,0.9769,-9.7088,1.8413,6.9331,172.8242,0.0000,0.0000,0.0000,0.0000,0.0000,break_time
432581,-0.0988,0.0634,0.0169,0.3627,1.2061,-9.7232,1.8691,6.9464,172.8041,0.0000,0.0000,0.0000,0.0000,0.0000,break_time
432697,-0.1332,0.0473,-0.0442,0.3107,1.1965,-9.7304,1.8637,6.9525,172.7997,0.0000,0.0000,0.0000,0.0000,0.0000,break_time
432813,-0.1840,0.0877,0.0273,0.3442,1.2349,-9.7424,1.8781,6.9792,172.7701,0.0000,0.0000,0.0000,0.0000,0.0000,break_time
432929,-0.2074,0.0992,-0.0344,0.3083,1.2139,-9.7286,1.8704,6.9921,172.7596,0.0000,0.0000,0.0000,0.0000,0.0000,break_time
433045,-0.2116,0.0619,0.0189,0.3262,1.1983,-9.7190,1.8741,6.9954,172.7554,0.0000,0.0000,0.0000,0.0000,0.0000,break_time
433161,-0.2233,0.0757,-0.0093,0.3166,1.2600,-9.7322,1.8715,7.0332,172.7196,0.0000,0.0000,0.0000,0.0000,0.0000,break_time
433277,-0.2067,0.0799,-0.0210,0.2825,1.2546,-9.7238,1.8495,7.0648,172.6948,0.0000,0.0000,0.0000,0.0000,0.0000,break_time
433393,-0.2050,0.0627,0.0230,0.4459,1.2055,-9.7567,1.9244,7.0620,172.6779,0.0000,0.0000,0.0000,0.0000,0.0000,break_time
433509,-0.2249,0.0713,0.0506,0.3699,1.1032,-9.7322,1.9482,7.0021,172.7293,0.0000,0.0000,0.0000,0.0000,0.0000,break_time
433625,-0.1992,0.0466,0.0068,0.2562,1.1942,-9.7232,1.9033,7.0018,172.7416,0.0000,0.0000,0.0000,0.0000,0.0000,nothing
433741,-0.1576,0.0656,0.0611,0.3095,1.1139,-9.7106,1.8943,6.9559,172.7883,0.0000,0.0000,0.0000,0.0000,0.0000,nothing
433857,-0.1391,0.0626,0.0303,0.3639,1.2929,-9.7615,1.9167,7.0145,172.7258,0.0000,0.0000,0.0000,0.0000,0.0000,nothing
433973,-0.3219,0.0732,0.0072,0.2622,1.1989,-9.7459,1.8779,7.0141,172.7364,0.0000,0.0000,0.0000,0.0000,0.0000,nothing
434089,-0.2548,0.0743,0.0492,0.2305,1.1714,-9.7160,1.8251,7.0001,172.7636,0.0000,0.0000,0.0000,0.0000,0.0000,nothing
434205,-0.1111,0.0473,-0.0712,0.3089,1.1319,-9.7256,1.8233,6.9636,172.7993,0.0000,0.0000,0.0000,0.0000,0.0000,nothing
434321,-0.1421,0.0613,0.0529,0.3801,1.3103,-9.7130,1.8631,7.0349,172.7201,0.0000,0.0000,0.0000,0.0000,0.0000,nothing
434437,-0.1689,0.0650,-0.0121,0.3466,1.3025,-9.7232,1.8791,7.0940,172.6589,0.0000,0.0000,0.0000,0.0000,0.0000,nothing
434553,-0.3651,0.1091,0.0234,0.1772,1.3486,-9.9297,1.7908,7.1592,172.6179,0.0000,0.0000,0.0000,0.0000,0.0000,หนึ่ง
434669,-0.2256,0.0642,-0.0229,0.5148,1.2025,-9.6017,1.9146,7.1563,172.5894,0.0000,0.0000,0.0000,0.0000,0.0000,หนึ่ง
434785,-0.3381,0.0667,0.0104,0.3059,1.1762,-9.7232,1.9021,7.1301,172.6180,0.0000,0.0000,0.0000,0.0000,0.0000,หนึ่ง
434901,-0.2285,0.0668,0.0395,0.3292,1.1630,-9.7699,1.9035,7.0955,172.6510,0.0000,0.0000,0.0000,0.0000,0.0000,หนึ่ง
435017,-0.1994,0.0470,0.0334,0.2783,1.1822,-9.7268,1.8759,7.0787,172.6745,0.0000,0.0000,0.0000,0.0000,0.0000,หนึ่ง
435133,-0.1808,0.0930,-0.0003,0.3621,1.2995,-9.7136,1.8999,7.1322,172.6165,0.0000,0.0000,0.0000,0.0000,0.0000,break_time
435249,-0.2093,0.1155,0.0082,0.3831,1.1139,-9.6466,1.9355,7.0777,172.6598,0.0000,0.0000,0.0000,0.0000,0.0000,break_time
435365,-0.1902,0.1020,-0.0363,0.3346,1.2492,-9.7801,1.9364,7.0975,172.6404,0.0000,0.0000,0.0000,0.0000,0.0000,break_time
435481,-0.2229,0.0748,-0.0305,0.2771,1.2139,-9.7226,1.9048,7.0992,172.6472,0.0000,0.0000,0.0000,0.0000,0.0000,break_time
435597,-0.2297,0.0725,0.0635,0.3460,1.2091,-9.7124,1.9167,7.0984,172.6447,0.0000,0.0000,0.0000,0.0000,0.0000,break_time
435713,-0.1625,0.0638,0.0046,0.3011,1.1762,-9.7286,1.9010,7.0777,172.6690,0.0000,0.0000,0.0000,0.0000,0.0000,break_time
435829,-0.2964,0.0994,0.0859,0.3286,1.5096,-9.6783,1.9032,7.2558,172.4962,0.0000,0.0000,0.0000,0.0000,0.0000,break_time
435945,-0.3279,0.1042,0.0701,0.2909,1.2055,-9.7651,1.8821,7.2336,172.5230,0.0000,0.0000,0.0000,0.0000,0.0000,break_time
436061,-0.2721,0.0905,-0.0533,0.2155,1.0852,-9.7633,1.8195,7.1443,172.6253,0.0000,0.0000,0.0000,0.0000,0.0000,break_time
436177,-0.1177,0.0143,-0.0558,0.3023,1.1121,-9.7813,1.8134,7.0780,172.6911,0.0000,0.0000,0.0000,0.0000,0.0000,break_time
436293,-0.1373,0.0473,0.0083,0.2628,1.1936,-9.7028,1.7862,7.0712,172.7044,0.0000,0.0000,0.0000,0.0000,0.0000,break_time
436409,-0.1847,0.0739,0.0285,0.3945,1.2594,-9.7549,1.8373,7.0993,172.6645,0.0000,0.0000,0.0000,0.0000,0.0000,break_time
436525,-0.2264,0.0757,0.0357,0.3286,1.2223,-9.7172,1.8458,7.1058,172.6559,0.0000,0.0000,0.0000,0.0000,0.0000,break_time
436641,-0.2594,0.0480,0.0139,0.3107,1.3360,-9.7352,1.8423,7.1764,172.5885,0.0000,0.0000,0.0000,0.0000,0.0000,break_time
436757,-0.3291,0.0637,0.0117,0.2185,1.0517,-9.7669,1.7854,7.0731,172.7028,0.0000,0.0000,0.0000,0.0000,0.0000,break_time
436873,-0.1106,0.0653,0.0106,0.3196,1.0277,-9.7406,1.7938,6.9680,172.8026,0.0000,0.0000,0.0000,0.0000,0.0000,break_time
436989,-0.1610,0.0871,-0.0191,0.3160,1.1277,-9.7412,1.7990,6.9312,172.8369,0.0000,0.0000,0.0000,0.0000,0.0000,break_time
437105,-0.0049,0.0125,-0.0404,0.3526,0.9457,-9.7507,1.8253,6.7919,172.9649,0.0000,0.0000,0.0000,0.0000,0.0000,break_time
437221,-0.0769,0.0796,0.0612,0.3921,1.3995,-9.6909,1.8720,6.9336,172.8157,0.0000,0.0000,0.0000,0.0000,0.0000,break_time
437337,-0.3239,0.1066,0.0037,0.3825,1.4593,-9.6801,1.9086,7.0967,172.6486,0.0000,0.0000,0.0000,0.0000,0.0000,break_time
437453,-0.3246,0.1497,0.0604,0.2753,1.3187,-9.7340,1.8783,7.1583,172.5969,0.0000,0.0000,0.0000,0.0000,0.0000,break_time
437569,-0.3070,0.0942,0.0962,0.2275,1.1552,-9.7196,1.8237,7.1202,172.6476,0.0000,0.0000,0.0000,0.0000,0.0000,break_time
437685,-0.1763,0.0607,-0.0022,0.2969,1.2301,-9.8280,1.8129,7.1213,172.6493,0.0000,0.0000,0.0000,0.0000,0.0000,break_time
437801,-0.2142,0.0735,-0.0014,0.3256,1.2390,-9.7112,1.8221,7.1358,172.6329,0.0000,0.0000,0.0000,0.0000,0.0000,break_time
437917,-0.2601,0.0807,0.0082,0.3286,1.2438,-9.7884,1.8307,7.1461,172.6208,0.0000,0.0000,0.0000,0.0000,0.0000,break_time
438033,-0.3816,0.1212,0.0405,0.2532,1.1594,-9.7160,1.7959,7.1118,172.6626,0.0000,0.0000,0.0000,0.0000,0.0000,break_time
438149,-0.1774,0.0525,0.0102,0.2688,1.1199,-9.7789,1.7727,7.0536,172.7248,0.0000,0.0000,0.0000,0.0000,0.0000,nothing
438265,-0.2209,0.0967,0.0042,0.2753,1.3426,-9.6855,1.7568,7.1368,172.6479,0.0000,0.0000,0.0000,0.0000,0.0000,nothing
438381,-0.2966,0.0792,-0.0040,0.2891,1.2899,-9.7250,1.7499,7.1784,172.6092,0.0000,0.0000,0.0000,0.0000,0.0000,nothing
438497,-0.2142,0.0525,-0.0076,0.1909,0.9852,-9.7202,1.6872,7.0398,172.7588,0.0000,0.0000,0.0000,0.0000,0.0000,nothing
438613,-0.0724,0.0206,0.0292,0.3795,1.1744,-9.7418,1.7400,7.0227,172.7628,0.0000,0.0000,0.0000,0.0000,0.0000,nothing
438729,-0.2008,0.0514,-0.0134,0.3310,1.2438,-9.7118,1.7596,7.0499,172.7317,0.0000,0.0000,0.0000,0.0000,0.0000,nothing
438845,-0.2263,0.0832,0.0675,0.3382,1.6096,-9.7040,1.7808,7.2867,172.4966,0.0000,0.0000,0.0000,0.0000,0.0000,nothing
438961,-0.3494,0.0800,0.0115,0.2257,1.1834,-9.7675,1.7340,7.2486,172.5448,0.0000,0.0000,0.0000,0.0000,0.0000,nothing
439077,-0.1930,0.0639,-0.0072,0.3861,1.1361,-9.7190,1.7864,7.1901,172.5891,0.0000,0.0000,0.0000,0.0000,0.0000,nothing
439193,-0.1491,0.0469,-0.0406,0.2867,1.1457,-9.7310,1.7754,7.1423,172.6381,0.0000,0.0000,0.0000,0.0000,0.0000,nothing
439309,-0.2154,0.0742,-0.0172,0.2556,1.2085,-9.7477,1.7469,7.1346,172.6525,0.0000,0.0000,0.0000,0.0000,0.0000,nothing
439425,-0.1740,0.1046,0.0005,0.2646,1.1277,-9.7268,1.7270,7.0823,172.7081,0.0000,0.0000,0.0000,0.0000,0.0000,nothing
439541,-0.1804,0.0931,0.0256,0.3454,1.1523,-9.7214,1.7563,7.0497,172.7327,0.0000,0.0000,0.0000,0.0000,0.0000,nothing
439657,-0.1715,0.0619,0.0095,0.3436,1.2331,-9.7669,1.7807,7.0639,172.7130,0.0000,0.0000,0.0000,0.0000,0.0000,nothing
439773,-0.1658,0.0585,0.0544,0.2215,1.0421,-9.7268,1.7324,6.9691,172.8167,0.0000,0.0000,0.0000,0.0000,0.0000,nothing
439889,-0.1470,0.0408,-0.0443,0.3951,1.2175,-9.7346,1.7898,6.9846,172.7875,0.0000,0.0000,0.0000,0.0000,0.0000,nothing
440005,-0.1592,0.0440,0.0157,0.3430,1.2528,-9.7310,1.8111,7.0193,172.7486,0.0000,0.0000,0.0000,0.0000,0.0000,nothing
440121,-0.2375,0.0639,-0.0083,0.2927,1.3444,-9.7262,1.8007,7.1041,172.6690,0.0000,0.0000,0.0000,0.0000,0.0000,nothing
440237,-0.2282,0.0642,0.0105,0.2454,1.2163,-9.7447,1.7638,7.1049,172.6772,0.0000,0.0000,0.0000,0.0000,0.0000,nothing
440353,-0.2202,0.0840,0.0398,0.4543,1.1540,-9.7549,1.8524,7.0684,172.6905,0.0000,0.0000,0.0000,0.0000,0.0000,nothing
440469,-0.1986,0.0972,0.0097,0.2221,1.1989,-9.7256,1.7970,7.0642,172.7086,0.0000,0.0000,0.0000,0.0000,0.0000,nothing
440585,-0.1749,0.0886,-0.0016,0.4154,1.2181,-9.7860,1.8588,7.0667,172.6905,0.0000,0.0000,0.0000,0.0000,0.0000,nothing
440701,-0.2803,0.0818,0.0025,0.2281,1.2977,-9.7334,1.8060,7.1193,172.6529,0.0000,0.0000,0.0000,0.0000,0.0000,nothing
440817,-0.2731,0.0791,0.0379,0.3508,1.1666,-9.7088,1.8308,7.0922,172.6730,0.0000,0.0000,0.0000,0.0000,0.0000,nothing
440933,-0.1915,0.0758,-0.0029,0.3981,1.1989,-9.7735,1.8793,7.0818,172.6706,0.0000,0.0000,0.0000,0.0000,0.0000,nothing
441049,-0.2264,0.0762,0.0384,0.2789,1.0942,-9.7220,1.8548,7.0157,172.7409,0.0000,0.0000,0.0000,0.0000,0.0000,nothing
441165,-0.2481,0.0579,0.0423,0.2915,1.3480,-9.7286,1.8393,7.1027,172.6606,0.0000,0.0000,0.0000,0.0000,0.0000,nothing
441281,-0.1775,0.0912,-0.0455,0.3807,1.1989,-9.7226,1.8779,7.0949,172.6583,0.0000,0.0000,0.0000,0.0000,0.0000,nothing
441397,-0.2038,0.0919,0.0090,0.2131,1.2055,-9.7094,1.8150,7.0931,172.6761,0.0000,0.0000,0.0000,0.0000,0.0000,nothing
441513,-0.2416,0.0893,0.0397,0.3113,1.1840,-9.7322,1.8154,7.0770,172.6915,0.0000,0.0000,0.0000,0.0000,0.0000,nothing
441629,-0.1884,0.0543,0.0100,0.3310,1.1044,-9.7262,1.8275,7.0169,172.7467,0.0000,0.0000,0.0000,0.0000,0.0000,nothing
441745,-0.1669,0.0540,0.0234,0.3089,1.1834,-9.7537,1.8248,7.0066,172.7574,0.0000,0.0000,0.0000,0.0000,0.0000,nothing
441861,-0.1365,0.0709,-0.0723,0.3909,1.1690,-9.7328,1.8707,6.9903,172.7613,0.0000,0.0000,0.0000,0.0000,0.0000,nothing
441977,-0.1475,0.0458,0.0304,0.2448,1.2175,-9.6777,1.8276,7.0080,172.7553,0.0000,0.0000,0.0000,0.0000,0.0000,nothing
442093,-0.1550,0.0582,-0.0269,0.2729,1.2762,-9.7124,1.8045,7.0554,172.7152,0.0000,0.0000,0.0000,0.0000,0.0000,nothing
442209,-0.2346,0.0637,0.0541,0.3921,1.2366,-9.7178,1.8532,7.0745,172.6844,0.0000,0.0000,0.0000,0.0000,0.0000,nothing
442325,-0.2018,0.0675,0.0080,0.3190,1.2259,-9.7262,1.8543,7.0851,172.6739,0.0000,0.0000,0.0000,0.0000,0.0000,nothing
442441,-0.1645,0.0604,0.0314,0.3160,1.1726,-9.7232,1.8537,7.0639,172.6946,0.0000,0.0000,0.0000,0.0000,0.0000,nothing
442557,-0.2521,0.0924,-0.0397,0.3544,1.4563,-9.6969,1.8753,7.2111,172.5465,0.0000,0.0000,0.0000,0.0000,0.0000,nothing
442673,-0.3205,0.0962,0.0290,0.3573,1.2169,-9.7453,1.8962,7.2013,172.5507,0.0000,0.0000,0.0000,0.0000,0.0000,nothing
442789,-0.2383,0.0733,0.0154,0.2047,1.1020,-9.7394,1.8263,7.1266,172.6407,0.0000,0.0000,0.0000,0.0000,0.0000,nothing
442905,-0.1566,0.0894,-0.0526,0.3172,1.0373,-9.7453,1.8291,7.0213,172.7421,0.0000,0.0000,0.0000,0.0000,0.0000,nothing
443021,-0.1031,0.0330,0.0489,0.3891,1.1804,-9.7477,1.8732,7.0090,172.7426,0.0000,0.0000,0.0000,0.0000,0.0000,nothing
443137,-0.0871,0.0189,-0.0042,0.3478,1.1654,-9.7142,1.8894,6.9918,172.7549,0.0000,0.0000,0.0000,0.0000,0.0000,nothing
443253,-0.2446,0.0904,-0.0278,0.2759,1.8334,-9.9531,1.8560,7.3458,172.4208,0.0000,0.0000,0.0000,0.0000,0.0000,nothing
443369,-0.5390,0.2214,0.0398,0.3160,1.6072,-9.6280,1.8560,7.5570,172.2158,0.0000,0.0000,0.0000,0.0000,0.0000,nothing
443485,-0.3067,0.0654,-0.0344,0.2287,0.7680,-9.7855,1.8041,7.2504,172.5262,0.0000,0.0000,0.0000,0.0000,0.0000,nothing
443601,0.0286,0.0646,-0.0217,0.3065,0.9858,-9.7483,1.8029,7.1029,172.6696,0.0000,0.0000,0.0000,0.0000,0.0000,nothing
443717,-0.1164,0.0660,0.0487,0.4070,1.3935,-9.6969,1.8605,7.2095,172.5519,0.0000,0.0000,0.0000,0.0000,0.0000,nothing
443833,-0.2862,0.0968,0.0236,0.3532,1.3031,-9.7268,1.8805,7.2511,172.5065,0.0000,0.0000,0.0000,0.0000,0.0000,nothing
443949,-0.2769,0.1082,0.0296,0.3023,1.2067,-9.7250,1.8692,7.2330,172.5269,0.0000,0.0000,0.0000,0.0000,0.0000,nothing
444065,-0.2207,0.0787,-0.0436,0.2765,1.1534,-9.7807,1.8430,7.1819,172.5830,0.0000,0.0000,0.0000,0.0000,0.0000,nothing
444181,-0.2089,0.0736,-0.0213,0.3567,1.2277,-9.7579,1.8665,7.1803,172.5786,0.0000,0.0000,0.0000,0.0000,0.0000,nothing
444297,-0.3205,0.0487,-0.0221,0.2418,1.1517,-9.7998,1.8201,7.1321,172.6369,0.0000,0.0000,0.0000,0.0000,0.0000,nothing
444413,-0.2189,0.0618,0.0147,0.3137,1.0972,-9.7226,1.8217,7.0627,172.7038,0.0000,0.0000,0.0000,0.0000,0.0000,nothing
444529,-0.0344,0.0244,0.0335,0.2460,0.6524,-9.6568,1.7858,6.7472,173.0184,0.0000,0.0000,0.0000,0.0000,0.0000,nothing
444645,0.0222,0.0462,-0.0324,0.4860,1.3534,-9.7322,1.8907,6.8636,172.8783,0.0000,0.0000,0.0000,0.0000,0.0000,nothing
444761,-0.2637,0.0671,0.0718,0.3591,1.2606,-9.7322,1.9113,6.9148,172.8234,0.0000,0.0000,0.0000,0.0000,0.0000,nothing
444877,-0.2691,0.0837,-0.0364,0.2789,1.2372,-9.7082,1.8835,6.9492,172.7976,0.0000,0.0000,0.0000,0.0000,0.0000,nothing
444993,-0.2368,0.0763,-0.0040,0.2825,1.2115,-9.7058,1.8606,6.9655,172.7879,0.0000,0.0000,0.0000,0.0000,0.0000,nothing
445109,-0.2871,0.1136,0.0094,0.2927,1.2253,-9.7908,1.8444,6.9820,172.7761,0.0000,0.0000,0.0000,0.0000,0.0000,nothing
445225,-0.1487,0.0600,0.0521,0.3256,1.0289,-9.7023,1.8511,6.8893,172.8640,0.0000,0.0000,0.0000,0.0000,0.0000,nothing
445341,-0.1710,0.0695,0.0341,0.2915,1.3187,-9.7232,1.8361,6.9724,172.7875,0.0000,0.0000,0.0000,0.0000,0.0000,nothing
445457,-0.2522,0.0875,-0.0304,0.3831,1.2851,-9.6909,1.8769,7.0299,172.7214,0.0000,0.0000,0.0000,0.0000,0.0000,nothing
445573,-0.3168,0.0751,0.0172,0.2454,1.1092,-9.7771,1.8319,6.9738,172.7873,0.0000,0.0000,0.0000,0.0000,0.0000,nothing
445689,-0.2027,0.0881,0.0211,0.3520,1.1092,-9.7453,1.8542,6.9253,172.8285,0.0000,0.0000,0.0000,0.0000,0.0000,nothing
445805,-0.1607,0.0620,-0.0068,0.3334,1.2271,-9.7890,1.8624,6.9469,172.8054,0.0000,0.0000,0.0000,0.0000,0.0000,nothing
445921,-0.2114,0.0945,-0.0984,0.2442,1.2941,-9.6939,1.8194,7.0122,172.7533,0.0000,0.0000,0.0000,0.0000,0.0000,nothing
446037,-0.1928,0.0630,0.0406,0.3196,1.1433,-9.7322,1.8243,6.9806,172.7826,0.0000,0.0000,0.0000,0.0000,0.0000,nothing
446153,-0.3542,0.0934,0.0244,0.3208,1.1732,-9.7872,1.8283,6.9657,172.7961,0.0000,0.0000,0.0000,0.0000,0.0000,nothing
446269,-0.1761,0.0927,0.0354,0.3077,1.0912,-9.6963,1.8261,6.9112,172.8494,0.0000,0.0000,0.0000,0.0000,0.0000,nothing
446385,-0.2680,0.0706,0.0247,0.1700,1.2486,-9.7507,1.7424,6.9498,172.8330,0.0000,0.0000,0.0000,0.0000,0.0000,nothing
446501,-0.1531,0.0402,0.0007,0.3891,1.0774,-9.7465,1.7954,6.8852,172.8824,0.0000,0.0000,0.0000,0.0000,0.0000,nothing
446617,-0.1832,0.0738,-0.0001,0.1903,1.1421,-9.7082,1.7276,6.8676,172.9164,0.0000,0.0000,0.0000,0.0000,0.0000,nothing
446733,-0.0574,0.0181,-0.0146,0.3753,1.0870,-9.6310,1.7761,6.8247,172.9458,0.0000,0.0000,0.0000,0.0000,0.0000,nothing
446849,-0.1746,0.0781,0.0395,0.4130,1.4108,-9.7160,1.8396,6.9681,172.7908,0.0000,0.0000,0.0000,0.0000,0.0000,nothing
446965,-0.3528,0.1085,0.0902,0.2927,1.3151,-9.6831,1.8272,7.0442,172.7204,0.0000,0.0000,0.0000,0.0000,0.0000,nothing
447081,-0.2848,0.0958,-0.0573,0.3101,1.1307,-9.7603,1.8253,7.0001,172.7635,0.0000,0.0000,0.0000,0.0000,0.0000,nothing
447197,-0.2020,0.0698,0.0184,0.3298,1.1846,-9.7358,1.8354,6.9934,172.7674,0.0000,0.0000,0.0000,0.0000,0.0000,nothing
447313,-0.2237,0.0548,0.0743,0.3011,1.2037,-9.7244,1.8278,6.9994,172.7636,0.0000,0.0000,0.0000,0.0000,0.0000,nothing
447429,-0.1771,0.0769,-0.0506,0.3059,1.2145,-9.7352,1.8236,7.0102,172.7542,0.0000,0.0000,0.0000,0.0000,0.0000,nothing
447545,-0.1964,0.0623,0.0389,0.3514,1.1971,-9.7346,1.8464,7.0099,172.7487,0.0000,0.0000,0.0000,0.0000,0.0000,nothing
447661,-0.1915,0.0627,-0.1391,0.3292,1.1852,-9.7789,1.8532,6.9995,172.7570,0.0000,0.0000,0.0000,0.0000,0.0000,nothing
447777,-0.1621,0.0645,0.0623,0.3675,1.2037,-9.7046,1.8831,7.0061,172.7428,0.0000,0.0000,0.0000,0.0000,0.0000,nothing
447893,-0.1823,0.0926,0.0337,0.3382,1.2696,-9.7477,1.8918,7.0472,172.7008,0.0000,0.0000,0.0000,0.0000,0.0000,nothing
448009,-0.2273,0.0763,0.0905,0.3107,1.2714,-9.7232,1.8841,7.0871,172.6643,0.0000,0.0000,0.0000,0.0000,0.0000,nothing
448125,-0.2233,0.0391,0.0526,0.2921,1.2169,-9.7633,1.8657,7.0885,172.6676,0.0000,0.0000,0.0000,0.0000,0.0000,nothing
448241,-0.1376,0.0727,-0.0438,0.5004,1.1289,-9.6729,1.9727,7.0448,172.6815,0.0000,0.0000,0.0000,0.0000,0.0000,nothing
448357,-0.1534,0.0545,0.0319,0.3909,1.1115,-9.7447,2.0036,6.9905,172.7252,0.0000,0.0000,0.0000,0.0000,0.0000,nothing
448473,-0.1434,0.0502,0.0090,0.2269,1.2636,-9.6843,1.9366,7.0345,172.7012,0.0000,0.0000,0.0000,0.0000,0.0000,nothing
448589,-0.1907,0.0740,0.0537,0.3807,1.2313,-9.7280,1.9653,7.0519,172.6767,0.0000,0.0000,0.0000,0.0000,0.0000,nothing
448705,-0.2147,0.0913,0.0035,0.3364,1.2714,-9.7519,1.9647,7.0892,172.6409,0.0000,0.0000,0.0000,0.0000,0.0000,nothing
448821,-0.2149,0.0832,0.0387,0.2825,1.2666,-9.7442,1.9328,7.1206,172.6191,0.0000,0.0000,0.0000,0.0000,0.0000,nothing
448937,-0.2313,0.0656,0.0553,0.3232,1.2349,-9.7232,1.9284,7.1320,172.6093,0.0000,0.0000,0.0000,0.0000,0.0000,nothing
449053,-0.2194,0.0819,-0.0483,0.2927,1.2115,-9.7232,1.9067,7.1287,172.6181,0.0000,0.0000,0.0000,0.0000,0.0000,nothing
449169,-0.1948,0.0652,-0.0005,0.3035,1.2361,-9.7394,1.8931,7.1388,172.6119,0.0000,0.0000,0.0000,0.0000,0.0000,nothing
449285,-0.2059,0.0723,-0.0293,0.3334,1.2139,-9.7094,1.8989,7.1371,172.6120,0.0000,0.0000,0.0000,0.0000,0.0000,nothing
449401,-0.1810,0.0470,-0.0367,0.3382,1.2067,-9.7358,1.9065,7.1295,172.6174,0.0000,0.0000,0.0000,0.0000,0.0000,nothing
449517,-0.2005,0.0458,-0.0130,0.3843,1.2714,-9.7316,1.9401,7.1604,172.5788,0.0000,0.0000,0.0000,0.0000,0.0000,nothing
449633,-0.2266,0.0702,0.0219,0.2580,1.2708,-9.7256,1.8968,7.1885,172.5629,0.0000,0.0000,0.0000,0.0000,0.0000,nothing
449749,-0.2127,0.0661,-0.1076,0.3101,1.2001,-9.7023,1.8888,7.1745,172.5785,0.0000,0.0000,0.0000,0.0000,0.0000,nothing
449865,-0.2172,0.0623,0.0525,0.2813,1.1678,-9.7370,1.8642,7.1407,172.6175,0.0000,0.0000,0.0000,0.0000,0.0000,nothing
449981,-0.2091,0.0758,-0.0165,0.3298,1.2103,-9.7238,1.8706,7.1357,172.6207,0.0000,0.0000,0.0000,0.0000,0.0000,nothing
450097,-0.1952,0.0763,0.0498,0.3220,1.2247,-9.7394,1.8714,7.1385,172.6178,0.0000,0.0000,0.0000,0.0000,0.0000,nothing
450213,-0.2121,0.0695,-0.0135,0.3310,1.2091,-9.7286,1.8776,7.1327,172.6218,0.0000,0.0000,0.0000,0.0000,0.0000,nothing
450329,-0.2228,0.0917,-0.0102,0.2909,1.2271,-9.7483,1.8594,7.1365,172.6227,0.0000,0.0000,0.0000,0.0000,0.0000,nothing
450445,-0.2087,0.0518,-0.1174,0.3693,1.1672,-9.7352,1.8892,7.1061,172.6445,0.0000,0.0000,0.0000,0.0000,0.0000,nothing
450561,-0.1855,0.0791,0.0484,0.3053,1.2319,-9.7136,1.8789,7.1179,172.6358,0.0000,0.0000,0.0000,0.0000,0.0000,nothing
450677,-0.2095,0.0708,-0.0346,0.2807,1.2109,-9.7298,1.8550,7.1152,172.6445,0.0000,0.0000,0.0000,0.0000,0.0000,nothing
450793,-0.2367,0.0852,-0.0191,0.2694,1.2911,-9.6771,1.8276,7.1632,172.6050,0.0000,0.0000,0.0000,0.0000,0.0000,nothing
450909,-0.2727,0.1047,0.0665,0.3232,1.2468,-9.7268,1.8337,7.1769,172.5901,0.0000,0.0000,0.0000,0.0000,0.0000,nothing
451025,-0.2416,0.0863,0.0762,0.2975,1.2103,-9.7310,1.8241,7.1679,172.6013,0.0000,0.0000,0.0000,0.0000,0.0000,nothing
451141,-0.2229,0.0754,0.0000,0.3148,1.1546,-9.7064,1.8261,7.1292,172.6382,0.0000,0.0000,0.0000,0.0000,0.0000,nothing
451257,-0.1905,0.0699,0.0410,0.1634,1.2343,-9.7040,1.7394,7.1411,172.6480,0.0000,0.0000,0.0000,0.0000,0.0000,nothing
451373,-0.2360,0.0657,0.0607,0.2712,1.2301,-9.7280,1.7238,7.1474,172.6456,0.0000,0.0000,0.0000,0.0000,0.0000,nothing
451489,-0.2183,0.0740,0.0263,0.2735,1.1983,-9.7046,1.7117,7.1363,172.6592,0.0000,0.0000,0.0000,0.0000,0.0000,nothing
451605,-0.1805,0.0829,0.0648,0.3011,1.1894,-9.7328,1.7164,7.1191,172.6749,0.0000,0.0000,0.0000,0.0000,0.0000,nothing
451721,-0.2188,0.0698,-0.0329,0.3262,1.2624,-9.7244,1.7354,7.1464,172.6438,0.0000,0.0000,0.0000,0.0000,0.0000,nothing
451837,-0.2511,0.0465,0.0772,0.2945,1.2528,-9.7406,1.7336,7.1644,172.6267,0.0000,0.0000,0.0000,0.0000,0.0000,nothing
451953,-0.2324,0.0638,-0.0050,0.3244,1.2181,-9.7328,1.7497,7.1609,172.6262,0.0000,0.0000,0.0000,0.0000,0.0000,nothing
452069,-0.2185,0.0488,0.0410,0.3113,1.1822,-9.7310,1.7566,7.1372,172.6477,0.0000,0.0000,0.0000,0.0000,0.0000,nothing
452185,-0.1963,0.0657,-0.0342,0.3220,1.2007,-9.7639,1.7685,7.1241,172.6575,0.0000,0.0000,0.0000,0.0000,0.0000,nothing
452301,-0.1915,0.0886,-0.0018,0.2981,1.2259,-9.7495,1.7654,7.1280,172.6544,0.0000,0.0000,0.0000,0.0000,0.0000,nothing
452417,-0.2007,0.0697,0.0339,0.3172,1.2133,-9.7741,1.7733,7.1225,172.6579,0.0000,0.0000,0.0000,0.0000,0.0000,nothing
452533,-0.2191,0.0473,-0.0368,0.3382,1.2169,-9.7250,1.7936,7.1230,172.6523,0.0000,0.0000,0.0000,0.0000,0.0000,nothing
452649,-0.1909,0.0848,0.0226,0.3071,1.1876,-9.7178,1.7939,7.1071,172.6677,0.0000,0.0000,0.0000,0.0000,0.0000,nothing
452765,-0.1932,0.0916,0.0100,0.3442,1.2217,-9.7340,1.8155,7.1114,172.6582,0.0000,0.0000,0.0000,0.0000,0.0000,nothing
452881,-0.2334,0.0451,-0.0867,0.3238,1.2277,-9.7184,1.8232,7.1198,172.6481,0.0000,0.0000,0.0000,0.0000,0.0000,nothing
452997,-0.1836,0.0829,0.0294,0.2143,1.2121,-9.7447,1.7659,7.1167,172.6653,0.0000,0.0000,0.0000,0.0000,0.0000,nothing
453113,-0.1975,0.0575,-0.0146,0.3232,1.1528,-9.7274,1.7783,7.0806,172.6973,0.0000,0.0000,0.0000,0.0000,0.0000,nothing
453229,-0.1551,0.0480,0.0353,0.3514,1.2265,-9.7328,1.8056,7.0903,172.6811,0.0000,0.0000,0.0000,0.0000,0.0000,nothing
453345,-0.2303,0.0735,0.0579,0.2388,1.1319,-9.7471,1.7644,7.0435,172.7367,0.0000,0.0000,0.0000,0.0000,0.0000,nothing
453461,-0.1256,0.0628,-0.0155,0.3460,1.0601,-9.7382,1.7903,6.9601,172.8111,0.0000,0.0000,0.0000,0.0000,0.0000,nothing
453577,-0.1287,0.0429,0.0025,0.3358,1.2271,-9.7100,1.8077,6.9839,172.7837,0.0000,0.0000,0.0000,0.0000,0.0000,nothing
453693,-0.1731,0.0708,0.0068,0.2801,1.3534,-9.7346,1.7902,7.0768,172.6980,0.0000,0.0000,0.0000,0.0000,0.0000,nothing
453809,-0.2553,0.0649,0.0125,0.3514,1.2241,-9.7142,1.8167,7.0869,172.6817,0.0000,0.0000,0.0000,0.0000,0.0000,nothing
453925,-0.2627,0.0889,-0.0682,0.3280,1.2935,-9.7639,1.8258,7.1326,172.6351,0.0000,0.0000,0.0000,0.0000,0.0000,nothing
454041,-0.2619,0.0657,0.0567,0.3035,1.1924,-9.6885,1.8213,7.1207,172.6478,0.0000,0.0000,0.0000,0.0000,0.0000,nothing
454157,-0.2211,0.0687,-0.0307,0.2909,1.1588,-9.7406,1.8090,7.0867,172.6837,0.0000,0.0000,0.0000,0.0000,0.0000,nothing
454273,-0.2038,0.0605,0.0033,0.3520,1.2175,-9.7220,1.8338,7.0914,172.6729,0.0000,0.0000,0.0000,0.0000,0.0000,nothing
454389,-0.1947,0.0907,0.0117,0.2837,1.2313,-9.6981,1.8168,7.1055,172.6636,0.0000,0.0000,0.0000,0.0000,0.0000,nothing
454505,-0.2239,0.0908,-0.0160,0.3047,1.2313,-9.7364,1.8129,7.1153,172.6550,0.0000,0.0000,0.0000,0.0000,0.0000,nothing
454621,-0.2258,0.0667,0.0264,0.3615,1.2181,-9.7100,1.8431,7.1183,172.6445,0.0000,0.0000,0.0000,0.0000,0.0000,nothing
454737,-0.1840,0.0739,-0.0668,0.2676,1.2307,-9.7711,1.8143,7.1241,172.6461,0.0000,0.0000,0.0000,0.0000,0.0000,nothing
454853,-0.1913,0.0858,0.0348,0.3562,1.1511,-9.7220,1.8412,7.0865,172.6758,0.0000,0.0000,0.0000,0.0000,0.0000,nothing
454969,-0.2048,0.0589,0.0056,0.3041,1.2223,-9.7495,1.8343,7.0921,172.6721,0.0000,0.0000,0.0000,0.0000,0.0000,nothing
455085,-0.2158,0.0679,-0.0269,0.3131,1.2043,-9.7130,1.8341,7.0894,172.6749,0.0000,0.0000,0.0000,0.0000,0.0000,nothing
455201,-0.2245,0.0693,0.0316,0.3274,1.2139,-9.7675,1.8412,7.0885,172.6739,0.0000,0.0000,0.0000,0.0000,0.0000,nothing
455317,-0.1795,0.0803,0.0484,0.3478,1.1947,-9.7238,1.8604,7.0797,172.6775,0.0000,0.0000,0.0000,0.0000,0.0000,nothing
455433,-0.2101,0.1088,-0.0380,0.3256,1.3001,-9.7130,1.8647,7.1336,172.6242,0.0000,0.0000,0.0000,0.0000,0.0000,nothing
455549,-0.3091,0.0691,0.0008,0.4232,1.1295,-9.8459,1.9233,7.0735,172.6671,0.0000,0.0000,0.0000,0.0000,0.0000,nothing
455665,-0.2369,0.0455,-0.0465,0.1030,1.1690,-9.6915,1.7921,7.0542,172.7195,0.0000,0.0000,0.0000,0.0000,0.0000,nothing
455781,-0.1628,0.0656,0.0324,0.3633,1.0062,-9.6987,1.8262,6.9413,172.8202,0.0000,0.0000,0.0000,0.0000,0.0000,nothing
455897,-0.1681,0.0545,-0.0421,0.3376,1.1391,-9.7400,1.8407,6.9138,172.8430,0.0000,0.0000,0.0000,0.0000,0.0000,nothing
456013,-0.1707,0.1018,0.0886,0.2885,1.5132,-9.7801,1.8236,7.1031,172.6642,0.0000,0.0000,0.0000,0.0000,0.0000,nothing
456129,-0.3281,0.0837,0.0218,0.3532,1.2863,-9.7687,1.8466,7.1426,172.6201,0.0000,0.0000,0.0000,0.0000,0.0000,nothing
456245,-0.2905,0.0821,0.0502,0.2340,1.2307,-9.7154,1.7990,7.1501,172.6248,0.0000,0.0000,0.0000,0.0000,0.0000,nothing
456361,-0.3855,0.1033,-0.0018,0.1329,1.4204,-9.7687,1.6957,7.2629,172.5396,0.0000,0.0000,0.0000,0.0000,0.0000,nothing
456477,-0.3123,0.0642,0.0453,0.1820,0.9368,-9.7394,1.6330,7.0866,172.7258,0.0000,0.0000,0.0000,0.0000,0.0000,nothing
456593,-0.1027,0.0509,-0.0334,0.4064,1.0966,-9.7729,1.7065,7.0176,172.7759,0.0000,0.0000,0.0000,0.0000,0.0000,nothing
456709,-0.0991,0.0376,-0.0202,0.3190,1.1457,-9.7801,1.7215,6.9835,172.8054,0.0000,0.0000,0.0000,0.0000,0.0000,nothing
456825,-0.1340,0.0667,0.0038,0.2388,1.2289,-9.7340,1.6888,7.0045,172.7928,0.0000,0.0000,0.0000,0.0000,0.0000,nothing
456941,-0.1857,0.0540,-0.0059,0.3777,1.2702,-9.7453,1.7401,7.0461,172.7401,0.0000,0.0000,0.0000,0.0000,0.0000,nothing
457057,-0.2328,0.0998,-0.0322,0.4154,1.2875,-9.7346,1.8083,7.0943,172.6765,0.0000,0.0000,0.0000,0.0000,0.0000,nothing
457173,-0.2507,0.0780,-0.0052,0.2640,1.2187,-9.7005,1.7823,7.1007,172.6768,0.0000,0.0000,0.0000,0.0000,0.0000,nothing
457289,-0.2348,0.0841,0.0680,0.3244,1.1977,-9.7388,1.7934,7.0914,172.6831,0.0000,0.0000,0.0000,0.0000,0.0000,nothing
457405,-0.1954,0.0751,0.0470,0.2640,1.2247,-9.7058,1.7687,7.1011,172.6797,0.0000,0.0000,0.0000,0.0000,0.0000,nothing
457521,-0.2293,0.0635,0.0864,0.3232,1.2277,-9.7256,1.7807,7.1100,172.6681,0.0000,0.0000,0.0000,0.0000,0.0000,nothing
457637,-0.1547,0.0575,-0.0194,0.3065,1.1786,-9.7136,1.7820,7.0905,172.6867,0.0000,0.0000,0.0000,0.0000,0.0000,nothing
457753,-0.2164,0.0868,0.0240,0.3466,1.3989,-9.7364,1.8057,7.1989,172.5758,0.0000,0.0000,0.0000,0.0000,0.0000,nothing
457869,-0.2503,0.0793,-0.0709,0.3418,1.2875,-9.6993,1.8251,7.2346,172.5364,0.0000,0.0000,0.0000,0.0000,0.0000,nothing
457985,-0.2743,0.0547,-0.0359,0.3262,1.1822,-9.7406,1.8331,7.2027,172.5653,0.0000,0.0000,0.0000,0.0000,0.0000,nothing
458101,-0.1986,0.0586,0.0414,0.2969,1.1906,-9.7382,1.8231,7.1792,172.5906,0.0000,0.0000,0.0000,0.0000,0.0000,nothing
458217,-0.1224,0.0566,-0.0776,0.3005,1.1738,-9.7465,1.8161,7.1476,172.6229,0.0000,0.0000,0.0000,0.0000,0.0000,nothing
458333,-0.2307,0.0549,-0.0015,0.3538,1.2726,-9.7465,1.8407,7.1763,172.5890,0.0000,0.0000,0.0000,0.0000,0.0000,nothing
458449,-0.2105,0.0664,0.0924,0.3490,1.2552,-9.6939,1.8610,7.1959,172.5648,0.0000,0.0000,0.0000,0.0000,0.0000,nothing
458565,-0.2136,0.0609,-0.0072,0.3089,1.1780,-9.7316,1.8554,7.1662,172.5951,0.0000,0.0000,0.0000,0.0000,0.0000,nothing
458681,-0.2751,0.0919,0.0511,0.3448,1.3546,-9.6969,1.8715,7.2442,172.5154,0.0000,0.0000,0.0000,0.0000,0.0000,nothing
458797,-0.2222,0.0653,-0.0309,0.3340,1.2043,-9.7633,1.8788,7.2225,172.5346,0.0000,0.0000,0.0000,0.0000,0.0000,nothing
458913,-0.1937,0.1040,-0.0030,0.4238,1.2618,-9.7268,1.9384,7.2387,172.5035,0.0000,0.0000,0.0000,0.0000,0.0000,nothing
459029,-0.1755,0.0509,-0.0744,0.2855,1.2408,-9.7328,1.9112,7.2411,172.5083,0.0000,0.0000,0.0000,0.0000,0.0000,nothing
459145,-0.2244,0.0650,0.0286,0.2490,1.2815,-9.6987,1.8660,7.2694,172.4924,0.0000,0.0000,0.0000,0.0000,0.0000,nothing
459261,-0.2440,0.0802,0.0131,0.3951,1.2229,-9.7753,1.9092,7.2549,172.4954,0.0000,0.0000,0.0000,0.0000,0.0000,nothing
459377,-0.2350,0.1065,-0.0101,0.2795,1.3510,-9.6394,1.8830,7.3264,172.4329,0.0000,0.0000,0.0000,0.0000,0.0000,nothing
459493,-0.2714,0.0882,0.0623,0.2640,1.2139,-9.7573,1.8484,7.3026,172.4646,0.0000,0.0000,0.0000,0.0000,0.0000,nothing
459609,-0.1573,0.1036,0.0086,0.2831,1.1475,-9.7998,1.8278,7.2396,172.5308,0.0000,0.0000,0.0000,0.0000,0.0000,nothing
459725,-0.1718,0.0526,-0.0744,0.4543,1.1109,-9.7591,1.9100,7.1643,172.5828,0.0000,0.0000,0.0000,0.0000,0.0000,nothing
459841,-0.2258,0.0389,0.0320,0.2101,1.2636,-9.7370,1.8416,7.1872,172.5782,0.0000,0.0000,0.0000,0.0000,0.0000,nothing
459957,-0.1915,0.0962,0.0095,0.3196,1.2235,-9.6729,1.8452,7.1890,172.5756,0.0000,0.0000,0.0000,0.0000,0.0000,nothing
460073,-0.1193,0.0296,-0.0145,0.3562,0.7590,-9.5861,1.8725,6.9272,172.8218,0.0000,0.0000,0.0000,0.0000,0.0000,nothing
460189,0.0110,0.0200,-0.0121,0.4034,1.4629,-9.7328,1.9203,7.0894,172.6526,0.0000,0.0000,0.0000,0.0000,0.0000,nothing
460305,-0.4222,0.1247,0.0293,0.3095,1.5072,-9.7525,1.9078,7.2597,172.4912,0.0000,0.0000,0.0000,0.0000,0.0000,nothing
460421,-0.3557,0.1236,-0.0080,0.3035,1.0649,-9.7160,1.8950,7.1591,172.5918,0.0000,0.0000,0.0000,0.0000,0.0000,nothing
460537,-0.1768,0.0909,0.0646,0.3160,1.0828,-9.7394,1.8902,7.0773,172.6721,0.0000,0.0000,0.0000,0.0000,0.0000,nothing
460653,-0.1656,0.0533,-0.0146,0.3107,1.2001,-9.7394,1.8825,7.0717,172.6796,0.0000,0.0000,0.0000,0.0000,0.0000,nothing
460769,-0.1868,0.0468,0.0479,0.2927,1.2414,-9.7100,1.8655,7.0927,172.6636,0.0000,0.0000,0.0000,0.0000,0.0000,nothing
460885,-0.2018,0.0675,0.0064,0.3370,1.2175,-9.7082,1.8762,7.0978,172.6559,0.0000,0.0000,0.0000,0.0000,0.0000,nothing
461001,-0.2018,0.0371,-0.0214,0.2873,1.2301,-9.7591,1.8558,7.1062,172.6531,0.0000,0.0000,0.0000,0.0000,0.0000,nothing
461117,-0.1779,0.0658,0.0988,0.2807,1.2355,-9.7250,1.8343,7.1193,172.6459,0.0000,0.0000,0.0000,0.0000,0.0000,nothing
461233,-0.2195,0.0543,-0.0027,0.3388,1.2079,-9.7160,1.8490,7.1156,172.6457,0.0000,0.0000,0.0000,0.0000,0.0000,nothing
461349,-0.1667,0.0594,0.1029,0.3047,1.1768,-9.7543,1.8417,7.0916,172.6708,0.0000,0.0000,0.0000,0.0000,0.0000,nothing
461465,-0.1795,0.0705,0.0510,0.2867,1.2839,-9.7202,1.8251,7.1345,172.6334,0.0000,0.0000,0.0000,0.0000,0.0000,nothing
461581,-0.2394,0.0721,-0.0033,0.3286,1.2582,-9.7298,1.8344,7.1575,172.6087,0.0000,0.0000,0.0000,0.0000,0.0000,nothing
461697,-0.2427,0.0920,0.0551,0.3011,1.2426,-9.7388,1.8266,7.1686,172.6000,0.0000,0.0000,0.0000,0.0000,0.0000,nothing
461813,-0.2275,0.0695,0.0079,0.2771,1.2253,-9.7627,1.8052,7.1668,172.6070,0.0000,0.0000,0.0000,0.0000,0.0000,nothing
461929,-0.2033,0.0724,0.0046,0.3370,1.1247,-9.7424,1.8215,7.1083,172.6597,0.0000,0.0000,0.0000,0.0000,0.0000,nothing
462045,-0.1876,0.0638,0.0442,0.2263,1.2133,-9.7549,1.7711,7.1063,172.6741,0.0000,0.0000,0.0000,0.0000,0.0000,nothing
462161,-0.1982,0.0738,-0.0818,0.4801,1.1846,-9.7406,1.8742,7.0883,172.6657,0.0000,0.0000,0.0000,0.0000,0.0000,nothing
462277,-0.2281,0.0558,-0.0519,0.2664,1.2432,-9.7453,1.8420,7.1062,172.6565,0.0000,0.0000,0.0000,0.0000,0.0000,nothing
462393,-0.2049,0.0558,0.0180,0.2849,1.2241,-9.7154,1.8245,7.1134,172.6540,0.0000,0.0000,0.0000,0.0000,0.0000,nothing
462509,-0.1600,0.0450,0.0965,0.3286,1.1403,-9.6933,1.8349,7.0728,172.6907,0.0000,0.0000,0.0000,0.0000,0.0000,nothing
462625,-0.1463,0.0795,0.0249,0.3729,1.2923,-9.7286,1.8690,7.1217,172.6347,0.0000,0.0000,0.0000,0.0000,0.0000,nothing
462741,-0.2593,0.0808,0.0519,0.3125,1.3576,-9.7028,1.8648,7.2055,172.5546,0.0000,0.0000,0.0000,0.0000,0.0000,nothing
462857,-0.2864,0.0778,-0.0119,0.3340,1.2031,-9.7555,1.8730,7.1876,172.5699,0.0000,0.0000,0.0000,0.0000,0.0000,nothing
462973,-0.2679,0.0710,-0.0185,0.2502,1.1421,-9.7166,1.8323,7.1391,172.6271,0.0000,0.0000,0.0000,0.0000,0.0000,nothing
463089,-0.2290,0.0748,0.0578,0.3101,1.1977,-9.7621,1.8296,7.1243,172.6422,0.0000,0.0000,0.0000,0.0000,0.0000,nothing
463205,-0.1994,0.0663,-0.0342,0.3358,1.1918,-9.7130,1.8431,7.1110,172.6516,0.0000,0.0000,0.0000,0.0000,0.0000,nothing
463321,-0.1775,0.0847,0.0568,0.2729,1.1906,-9.7208,1.8185,7.0979,172.6705,0.0000,0.0000,0.0000,0.0000,0.0000,nothing
463437,-0.2249,0.0793,0.0025,0.3460,1.1840,-9.7298,1.8388,7.0815,172.6813,0.0000,0.0000,0.0000,0.0000,0.0000,nothing
463553,-0.1989,0.0620,0.0795,0.3077,1.2259,-9.7394,1.8344,7.0904,172.6738,0.0000,0.0000,0.0000,0.0000,0.0000,nothing
463669,-0.2337,0.0566,-0.0997,0.3376,1.2127,-9.7471,1.8479,7.0901,172.6706,0.0000,0.0000,0.0000,0.0000,0.0000,nothing
463785,-0.1952,0.0844,0.0025,0.3675,1.1732,-9.7238,1.8780,7.0686,172.6837,0.0000,0.0000,0.0000,0.0000,0.0000,nothing
463901,-0.2074,0.0976,0.0094,0.3867,1.2402,-9.7615,1.9153,7.0854,172.6578,0.0000,0.0000,0.0000,0.0000,0.0000,nothing
464017,-0.2263,0.1018,0.0196,0.2526,1.2049,-9.7537,1.8710,7.0808,172.6737,0.0000,0.0000,0.0000,0.0000,0.0000,nothing
464133,-0.1963,0.0793,0.0945,0.3220,1.1852,-9.7166,1.8723,7.0678,172.6860,0.0000,0.0000,0.0000,0.0000,0.0000,nothing
464249,-0.2049,0.0814,-0.0473,0.3388,1.2295,-9.7453,1.8826,7.0797,172.6718,0.0000,0.0000,0.0000,0.0000,0.0000,nothing
464365,-0.1861,0.0536,0.0209,0.3029,1.2211,-9.7412,1.8710,7.0859,172.6688,0.0000,0.0000,0.0000,0.0000,0.0000,nothing
464481,-0.1855,0.0758,-0.0314,0.3496,1.1798,-9.7310,1.8882,7.0681,172.6815,0.0000,0.0000,0.0000,0.0000,0.0000,nothing
464597,-0.1821,0.0686,-0.0635,0.2963,1.2277,-9.7334,1.8723,7.0799,172.6743,0.0000,0.0000,0.0000,0.0000,0.0000,nothing
464713,-0.1853,0.0652,0.0079,0.2999,1.1995,-9.7118,1.8607,7.0757,172.6814,0.0000,0.0000,0.0000,0.0000,0.0000,nothing
464829,-0.2234,0.0416,0.0226,0.3328,1.2091,-9.7364,1.8689,7.0756,172.6793,0.0000,0.0000,0.0000,0.0000,0.0000,nothing
464945,-0.2364,0.0574,-0.0596,0.3154,1.2079,-9.7298,1.8663,7.0754,172.6802,0.0000,0.0000,0.0000,0.0000,0.0000,nothing
465061,-0.2086,0.0429,0.0270,0.2921,1.1708,-9.7465,1.8501,7.0525,172.7065,0.0000,0.0000,0.0000,0.0000,0.0000,nothing
465177,-0.1688,0.0598,-0.0237,0.3573,1.2037,-9.7412,1.8736,7.0512,172.7017,0.0000,0.0000,0.0000,0.0000,0.0000,nothing
465293,-0.1798,0.0778,0.0060,0.2735,1.2426,-9.7160,1.8462,7.0746,172.6861,0.0000,0.0000,0.0000,0.0000,0.0000,nothing
465409,-0.2007,0.0843,-0.0308,0.3358,1.2738,-9.7298,1.8576,7.1126,172.6464,0.0000,0.0000,0.0000,0.0000,0.0000,nothing
465525,-0.2307,0.0844,0.0555,0.3550,1.1648,-9.7627,1.8787,7.0812,172.6714,0.0000,0.0000,0.0000,0.0000,0.0000,nothing
465641,-0.1849,0.0687,-0.0187,0.2484,1.1750,-9.7519,1.8356,7.0599,172.7030,0.0000,0.0000,0.0000,0.0000,0.0000,nothing
465757,-0.1663,0.0638,0.0588,0.3113,1.1451,-9.7352,1.8339,7.0244,172.7378,0.0000,0.0000,0.0000,0.0000,0.0000,nothing
465873,-0.1677,0.0229,-0.0339,0.2759,1.2241,-9.7286,1.8118,7.0388,172.7294,0.0000,0.0000,0.0000,0.0000,0.0000,nothing
465989,-0.1986,0.0585,-0.0352,0.4040,1.1864,-9.7274,1.8667,7.0298,172.7242,0.0000,0.0000,0.0000,0.0000,0.0000,nothing
466105,-0.2196,0.0556,0.0063,0.3526,1.2361,-9.7681,1.8851,7.0476,172.7022,0.0000,0.0000,0.0000,0.0000,0.0000,nothing
466221,-0.2056,0.0618,-0.0015,0.3292,1.1642,-9.7238,1.8891,7.0252,172.7227,0.0000,0.0000,0.0000,0.0000,0.0000,nothing
466337,-0.2005,0.0796,0.0293,0.2777,1.2313,-9.7226,1.8626,7.0441,172.7114,0.0000,0.0000,0.0000,0.0000,0.0000,nothing
466453,-0.1988,0.0732,0.0352,0.2909,1.1989,-9.7573,1.8458,7.0399,172.7197,0.0000,0.0000,0.0000,0.0000,0.0000,nothing
466569,-0.1992,0.0792,-0.0239,0.2957,1.1989,-9.7292,1.8340,7.0381,172.7245,0.0000,0.0000,0.0000,0.0000,0.0000,nothing
466685,-0.1928,0.0582,0.0519,0.2352,1.2121,-9.7687,1.7874,7.0415,172.7330,0.0000,0.0000,0.0000,0.0000,0.0000,nothing
466801,-0.2316,0.0675,0.0570,0.3148,1.1953,-9.7250,1.7927,7.0377,172.7353,0.0000,0.0000,0.0000,0.0000,0.0000,nothing
466917,-0.1847,0.0866,-0.0090,0.2915,1.2319,-9.7783,1.7828,7.0517,172.7242,0.0000,0.0000,0.0000,0.0000,0.0000,nothing
467033,-0.2097,0.0825,0.0230,0.3220,1.2115,-9.7130,1.7929,7.0571,172.7165,0.0000,0.0000,0.0000,0.0000,0.0000,nothing
467149,-0.1749,0.0596,-0.0210,0.2759,1.2205,-9.6915,1.7755,7.0688,172.7094,0.0000,0.0000,0.0000,0.0000,0.0000,nothing
467265,-0.2120,0.0817,-0.0086,0.2610,1.2295,-9.7166,1.7506,7.0828,172.7019,0.0000,0.0000,0.0000,0.0000,0.0000,nothing
467381,-0.2215,0.0548,-0.0050,0.3765,1.2265,-9.7675,1.7948,7.0898,172.6843,0.0000,0.0000,0.0000,0.0000,0.0000,nothing
467497,-0.2101,0.0758,0.0181,0.2460,1.2013,-9.7082,1.7594,7.0860,172.6967,0.0000,0.0000,0.0000,0.0000,0.0000,nothing
467613,-0.2313,0.0862,-0.0432,0.3573,1.2205,-9.7268,1.7923,7.0921,172.6827,0.0000,0.0000,0.0000,0.0000,0.0000,nothing
467729,-0.1624,0.0492,-0.0619,0.3083,1.2067,-9.7286,1.7931,7.0896,172.6849,0.0000,0.0000,0.0000,0.0000,0.0000,nothing
467845,-0.1831,0.0693,0.0237,0.3460,1.2001,-9.7196,1.8161,7.0841,172.6844,0.0000,0.0000,0.0000,0.0000,0.0000,nothing
467961,-0.2087,0.0743,-0.0348,0.2520,1.2043,-9.7328,1.7817,7.0809,172.6962,0.0000,0.0000,0.0000,0.0000,0.0000,nothing
468077,-0.1806,0.0852,-0.0012,0.3556,1.2061,-9.7070,1.8116,7.0806,172.6890,0.0000,0.0000,0.0000,0.0000,0.0000,nothing
468193,-0.2307,0.0695,-0.1006,0.2819,1.2271,-9.7100,1.7955,7.0925,172.6815,0.0000,0.0000,0.0000,0.0000,0.0000,nothing
468309,-0.2098,0.0712,0.0548,0.2508,1.2744,-9.7106,1.7627,7.1306,172.6526,0.0000,0.0000,0.0000,0.0000,0.0000,nothing
468425,-0.2000,0.0523,-0.0303,0.3358,1.2013,-9.7567,1.7821,7.1190,172.6590,0.0000,0.0000,0.0000,0.0000,0.0000,nothing
468541,-0.2033,0.0917,-0.0023,0.3855,1.2109,-9.7076,1.8295,7.1176,172.6487,0.0000,0.0000,0.0000,0.0000,0.0000,nothing
468657,-0.2275,0.0598,0.0893,0.2676,1.2390,-9.6981,1.8033,7.1336,172.6396,0.0000,0.0000,0.0000,0.0000,0.0000,nothing
468773,-0.2279,0.0747,-0.0204,0.3011,1.2343,-9.7436,1.7986,7.1419,172.6328,0.0000,0.0000,0.0000,0.0000,0.0000,nothing
468889,-0.2164,0.0585,-0.0119,0.3532,1.2181,-9.7262,1.8251,7.1411,172.6270,0.0000,0.0000,0.0000,0.0000,0.0000,nothing
469005,-0.2410,0.0457,0.0915,0.4555,1.1864,-9.7028,1.9092,7.1234,172.6226,0.0000,0.0000,0.0000,0.0000,0.0000,nothing
469121,-0.2194,0.0521,-0.0070,0.3256,1.2438,-9.7244,1.9085,7.1396,172.6071,0.0000,0.0000,0.0000,0.0000,0.0000,nothing
469237,-0.2641,0.0669,0.0266,0.3232,1.1020,-9.7639,1.9061,7.0690,172.6759,0.0000,0.0000,0.0000,0.0000,0.0000,nothing
469353,-0.0954,0.0592,-0.0746,0.2376,1.0475,-9.7262,1.8548,6.9769,172.7784,0.0000,0.0000,0.0000,0.0000,0.0000,nothing
469469,-0.1032,0.0660,0.0308,0.4477,1.0906,-9.7591,1.9305,6.9161,172.8170,0.0000,0.0000,0.0000,0.0000,0.0000,nothing
469585,-0.1793,0.0429,-0.0409,0.3334,1.2762,-9.7436,1.9318,6.9703,172.7643,0.0000,0.0000,0.0000,0.0000,0.0000,nothing
469701,-0.2014,0.0529,0.0476,0.2759,1.2977,-9.7106,1.9000,7.0341,172.7113,0.0000,0.0000,0.0000,0.0000,0.0000,nothing
469817,-0.2510,0.0601,-0.0140,0.3567,1.2337,-9.7268,1.9184,7.0531,172.6881,0.0000,0.0000,0.0000,0.0000,0.0000,nothing
469933,-0.2245,0.0780,0.0803,0.2903,1.2289,-9.6999,1.8967,7.0694,172.6780,0.0000,0.0000,0.0000,0.0000,0.0000,nothing
470049,-0.2091,0.0717,-0.0688,0.3214,1.2085,-9.7531,1.8943,7.0685,172.6796,0.0000,0.0000,0.0000,0.0000,0.0000,nothing
470165,-0.1794,0.0889,-0.0522,0.3322,1.2055,-9.7352,1.8989,7.0671,172.6797,0.0000,0.0000,0.0000,0.0000,0.0000,nothing
470281,-0.1989,0.0837,0.0048,0.2747,1.2331,-9.6897,1.8702,7.0853,172.6696,0.0000,0.0000,0.0000,0.0000,0.0000,nothing
470397,-0.1939,0.0495,-0.0624,0.2849,1.1965,-9.7442,1.8494,7.0765,172.6834,0.0000,0.0000,0.0000,0.0000,0.0000,nothing
470513,-0.2008,0.0449,-0.0055,0.3723,1.2205,-9.7567,1.8814,7.0814,172.6705,0.0000,0.0000,0.0000,0.0000,0.0000,nothing
470629,-0.2135,0.0498,-0.0487,0.2741,1.2301,-9.7501,1.8530,7.0920,172.6675,0.0000,0.0000,0.0000,0.0000,0.0000,nothing
470745,-0.2384,0.0833,0.0311,0.3172,1.2618,-9.7453,1.8526,7.1202,172.6403,0.0000,0.0000,0.0000,0.0000,0.0000,nothing
470861,-0.2124,0.0879,-0.1166,0.3424,1.1774,-9.7058,1.8679,7.0995,172.6564,0.0000,0.0000,0.0000,0.0000,0.0000,nothing
470977,-0.1843,0.0562,-0.0376,0.3214,1.2103,-9.7220,1.8690,7.0988,172.6568,0.0000,0.0000,0.0000,0.0000,0.0000,nothing
471093,-0.2056,0.0708,0.0455,0.3448,1.2157,-9.7322,1.8834,7.1005,172.6514,0.0000,0.0000,0.0000,0.0000,0.0000,nothing
471209,-0.1778,0.0684,0.0042,0.3286,1.2049,-9.7154,1.8873,7.0971,172.6538,0.0000,0.0000,0.0000,0.0000,0.0000,nothing
471325,-0.2031,0.0592,-0.0444,0.3017,1.1882,-9.7310,1.8749,7.0832,172.6704,0.0000,0.0000,0.0000,0.0000,0.0000,nothing
471441,-0.2264,0.0499,-0.0173,0.3256,1.1900,-9.7765,1.8767,7.0684,172.6843,0.0000,0.0000,0.0000,0.0000,0.0000,nothing
471557,-0.2052,0.0762,0.0219,0.2789,1.2115,-9.7064,1.8525,7.0727,172.6863,0.0000,0.0000,0.0000,0.0000,0.0000,nothing
471673,-0.1929,0.0676,-0.0701,0.3184,1.2031,-9.7471,1.8529,7.0687,172.6900,0.0000,0.0000,0.0000,0.0000,0.0000,nothing
471789,-0.2095,0.0596,-0.0229,0.3681,1.2091,-9.7304,1.8826,7.0697,172.6814,0.0000,0.0000,0.0000,0.0000,0.0000,nothing
471905,-0.2196,0.0545,0.0349,0.3298,1.2181,-9.7489,1.8867,7.0745,172.6757,0.0000,0.0000,0.0000,0.0000,0.0000,nothing
472021,-0.2241,0.0789,0.0005,0.2789,1.1876,-9.7017,1.8615,7.0647,172.6917,0.0000,0.0000,0.0000,0.0000,0.0000,nothing
472137,-0.2108,0.0729,-0.0031,0.3340,1.1678,-9.7430,1.8703,7.0413,172.7121,0.0000,0.0000,0.0000,0.0000,0.0000,nothing
472253,-0.2079,0.0575,-0.0053,0.3406,1.2073,-9.7424,1.8820,7.0432,172.7072,0.0000,0.0000,0.0000,0.0000,0.0000,nothing
472369,-0.1836,0.0605,0.0155,0.2640,1.2672,-9.7190,1.8481,7.0814,172.6790,0.0000,0.0000,0.0000,0.0000,0.0000,nothing
472485,-0.1865,0.0548,-0.0374,0.3526,1.2277,-9.7394,1.8690,7.0913,172.6641,0.0000,0.0000,0.0000,0.0000,0.0000,nothing
472601,-0.2164,0.0904,-0.0266,0.2837,1.2103,-9.7376,1.8477,7.0904,172.6704,0.0000,0.0000,0.0000,0.0000,0.0000,nothing
472717,-0.2097,0.0783,0.0000,0.3053,1.2205,-9.7603,1.8407,7.0938,172.6689,0.0000,0.0000,0.0000,0.0000,0.0000,nothing
472833,-0.2335,0.0784,-0.0288,0.3382,1.1756,-9.7585,1.8537,7.0709,172.6878,0.0000,0.0000,0.0000,0.0000,0.0000,nothing
472949,-0.1902,0.0761,0.0078,0.2706,1.0726,-9.7501,1.8264,6.9914,172.7717,0.0000,0.0000,0.0000,0.0000,0.0000,nothing
473065,-0.2039,0.0558,-0.0438,0.2747,1.2043,-9.7298,1.8043,6.9976,172.7713,0.0000,0.0000,0.0000,0.0000,0.0000,nothing
473181,-0.1716,0.0686,0.0423,0.3567,1.3749,-9.7352,1.8317,7.1014,172.6638,0.0000,0.0000,0.0000,0.0000,0.0000,nothing
473297,-0.1960,0.0510,-0.0055,0.3053,1.2211,-9.7442,1.8266,7.1052,172.6614,0.0000,0.0000,0.0000,0.0000,0.0000,nothing
473413,-0.2179,0.0934,-0.0119,0.2969,1.2283,-9.7154,1.8176,7.1148,172.6543,0.0000,0.0000,0.0000,0.0000,0.0000,nothing
473529,-0.1789,0.0641,-0.0192,0.3125,1.2253,-9.7268,1.8184,7.1210,172.6482,0.0000,0.0000,0.0000,0.0000,0.0000,nothing
473645,-0.2343,0.0867,-0.0164,0.3340,1.1947,-9.7070,1.8321,7.1102,172.6552,0.0000,0.0000,0.0000,0.0000,0.0000,nothing
473761,-0.2229,0.0573,-0.0162,0.2903,1.2019,-9.7507,1.8181,7.1015,172.6671,0.0000,0.0000,0.0000,0.0000,0.0000,nothing
473877,-0.2038,0.0848,0.0134,0.3322,1.2109,-9.7112,1.8307,7.1017,172.6637,0.0000,0.0000,0.0000,0.0000,0.0000,nothing
473993,-0.2041,0.0556,-0.0087,0.3083,1.1906,-9.7831,1.8268,7.0850,172.6809,0.0000,0.0000,0.0000,0.0000,0.0000,nothing
474109,-0.2003,0.0727,-0.0071,0.3017,1.2642,-9.7274,1.8203,7.1166,172.6519,0.0000,0.0000,0.0000,0.0000,0.0000,nothing
474225,-0.2414,0.0770,-0.0229,0.4052,1.1983,-9.7220,1.8751,7.1071,172.6473,0.0000,0.0000,0.0000,0.0000,0.0000,nothing
474341,-0.2282,0.0533,0.0116,0.2125,1.2426,-9.7328,1.8116,7.1238,172.6471,0.0000,0.0000,0.0000,0.0000,0.0000,nothing
474457,-0.2202,0.0724,0.0278,0.3567,1.1636,-9.7304,1.8389,7.0930,172.6702,0.0000,0.0000,0.0000,0.0000,0.0000,nothing
474573,-0.1873,0.0789,-0.0049,0.3035,1.1924,-9.7705,1.8316,7.0791,172.6855,0.0000,0.0000,0.0000,0.0000,0.0000,nothing
474689,-0.1791,0.0582,-0.0234,0.2867,1.1959,-9.7178,1.8162,7.0725,172.6957,0.0000,0.0000,0.0000,0.0000,0.0000,nothing
474805,-0.1825,0.0772,0.0076,0.3406,1.2073,-9.7100,1.8339,7.0736,172.6902,0.0000,0.0000,0.0000,0.0000,0.0000,nothing
474921,-0.1922,0.0624,-0.0176,0.2819,1.2085,-9.7453,1.8150,7.0728,172.6957,0.0000,0.0000,0.0000,0.0000,0.0000,nothing
475037,-0.1831,0.0799,0.0130,0.2807,1.1654,-9.7442,1.7973,7.0473,172.7249,0.0000,0.0000,0.0000,0.0000,0.0000,nothing
475153,-0.1951,0.0682,0.0637,0.3723,1.2121,-9.7370,1.8349,7.0517,172.7112,0.0000,0.0000,0.0000,0.0000,0.0000,nothing
475269,-0.1860,0.0349,0.0010,0.3023,1.1732,-9.7370,1.8279,7.0332,172.7308,0.0000,0.0000,0.0000,0.0000,0.0000,nothing
475385,-0.2425,0.0494,0.0688,0.3160,1.2378,-9.6963,1.8303,7.0569,172.7072,0.0000,0.0000,0.0000,0.0000,0.0000,nothing
475501,-0.2194,0.0750,-0.0293,0.3298,1.2456,-9.7412,1.8397,7.0796,172.6829,0.0000,0.0000,0.0000,0.0000,0.0000,nothing
475617,-0.2240,0.0514,-0.1039,0.2729,1.1654,-9.7382,1.8151,7.0538,172.7141,0.0000,0.0000,0.0000,0.0000,0.0000,nothing
475733,-0.2194,0.0631,-0.0221,0.3292,1.1451,-9.7328,1.8260,7.0191,172.7450,0.0000,0.0000,0.0000,0.0000,0.0000,nothing
475849,-0.1850,0.0522,-0.0675,0.2855,1.2079,-9.7268,1.8103,7.0248,172.7435,0.0000,0.0000,0.0000,0.0000,0.0000,nothing
475965,-0.1898,0.0843,-0.0131,0.2873,1.1798,-9.7424,1.7969,7.0125,172.7587,0.0000,0.0000,0.0000,0.0000,0.0000,nothing
476081,-0.1962,0.0847,-0.0534,0.3220,1.2372,-9.7406,1.8051,7.0347,172.7351,0.0000,0.0000,0.0000,0.0000,0.0000,nothing
476197,-0.2009,0.0540,0.0506,0.2987,1.2277,-9.7418,1.7988,7.0492,172.7226,0.0000,0.0000,0.0000,0.0000,0.0000,nothing
476313,-0.1937,0.0507,-0.0390,0.2861,1.2408,-9.7268,1.7861,7.0710,172.7047,0.0000,0.0000,0.0000,0.0000,0.0000,nothing
476429,-0.2323,0.0492,-0.0401,0.3663,1.1947,-9.7406,1.8213,7.0627,172.7039,0.0000,0.0000,0.0000,0.0000,0.0000,nothing
476545,-0.2022,0.0750,-0.0074,0.2382,1.2259,-9.7322,1.7783,7.0741,172.7036,0.0000,0.0000,0.0000,0.0000,0.0000,nothing
476661,-0.2080,0.0743,-0.0434,0.2981,1.1900,-9.7340,1.7746,7.0634,172.7149,0.0000,0.0000,0.0000,0.0000,0.0000,nothing
476777,-0.2029,0.0507,-0.0068,0.3514,1.2031,-9.7603,1.8018,7.0593,172.7121,0.0000,0.0000,0.0000,0.0000,0.0000,nothing
476893,-0.2196,0.0753,-0.0416,0.2909,1.1965,-9.7322,1.7916,7.0540,172.7198,0.0000,0.0000,0.0000,0.0000,0.0000,nothing
477009,-0.2243,0.0544,-0.0496,0.3190,1.2115,-9.7112,1.7991,7.0593,172.7128,0.0000,0.0000,0.0000,0.0000,0.0000,nothing
477125,-0.2150,0.0618,-0.0511,0.2957,1.1714,-9.7430,1.7918,7.0386,172.7346,0.0000,0.0000,0.0000,0.0000,0.0000,nothing
477241,-0.1804,0.0729,-0.0177,0.2927,1.2163,-9.7148,1.7839,7.0481,172.7275,0.0000,0.0000,0.0000,0.0000,0.0000,nothing
477357,-0.1798,0.0761,-0.0619,0.3154,1.2337,-9.7507,1.7893,7.0640,172.7107,0.0000,0.0000,0.0000,0.0000,0.0000,nothing
477473,-0.1978,0.0653,0.0213,0.2819,1.2115,-9.7046,1.7755,7.0689,172.7093,0.0000,0.0000,0.0000,0.0000,0.0000,nothing
477589,-0.1943,0.0583,-0.0484,0.3472,1.2193,-9.7430,1.8005,7.0749,172.6973,0.0000,0.0000,0.0000,0.0000,0.0000,nothing
477705,-0.1770,0.0709,0.0189,0.2807,1.2612,-9.7142,1.7846,7.1068,172.6703,0.0000,0.0000,0.0000,0.0000,0.0000,nothing
477821,-0.3322,0.0828,0.0104,0.2592,1.2181,-9.8142,1.7561,7.1034,172.6806,0.0000,0.0000,0.0000,0.0000,0.0000,nothing
477937,-0.1198,0.0293,-0.0029,0.2287,1.0493,-9.7525,1.7141,7.0070,172.7843,0.0000,0.0000,0.0000,0.0000,0.0000,nothing
478053,-0.0608,0.0128,-0.0264,0.3975,1.1540,-9.7106,1.7752,6.9836,172.7921,0.0000,0.0000,0.0000,0.0000,0.0000,nothing
478169,-0.1532,0.0498,0.0825,0.2993,1.3354,-9.7005,1.7728,7.0686,172.7103,0.0000,0.0000,0.0000,0.0000,0.0000,nothing
478285,-0.2447,0.0972,0.0057,0.3238,1.2720,-9.7465,1.7842,7.1049,172.6722,0.0000,0.0000,0.0000,0.0000,0.0000,nothing
478401,-0.2056,0.0714,0.0454,0.3502,1.1672,-9.7382,1.8103,7.0775,172.6924,0.0000,0.0000,0.0000,0.0000,0.0000,nothing
478517,-0.1930,0.0661,0.0443,0.2119,1.2780,-9.7154,1.7532,7.1189,172.6662,0.0000,0.0000,0.0000,0.0000,0.0000,nothing
478633,-0.2556,0.0890,0.0254,0.3867,1.2468,-9.7124,1.8040,7.1380,172.6353,0.0000,0.0000,0.0000,0.0000,0.0000,nothing
478749,-0.2420,0.0701,0.0588,0.3358,1.1768,-9.7196,1.8200,7.1141,172.6544,0.0000,0.0000,0.0000,0.0000,0.0000,nothing
478865,-0.2207,0.0545,-0.0228,0.2987,1.1534,-9.7364,1.8125,7.0780,172.6913,0.0000,0.0000,0.0000,0.0000,0.0000,nothing
478981,-0.1947,0.0904,-0.0397,0.3406,1.2378,-9.7310,1.8301,7.0948,172.6707,0.0000,0.0000,0.0000,0.0000,0.0000,nothing
479097,-0.1168,0.0769,-0.0055,0.3119,1.0673,-9.7322,1.8295,7.0109,172.7520,0.0000,0.0000,0.0000,0.0000,0.0000,nothing
479213,-0.1340,0.0249,-0.0196,0.2861,1.2624,-9.6783,1.8146,7.0525,172.7155,0.0000,0.0000,0.0000,0.0000,0.0000,nothing
479329,-0.2196,0.0807,0.0172,0.3837,1.3390,-9.7142,1.8572,7.1315,172.6282,0.0000,0.0000,0.0000,0.0000,0.0000,nothing
479445,-0.2639,0.0585,0.0414,0.3226,1.2145,-9.6795,1.8609,7.1331,172.6257,0.0000,0.0000,0.0000,0.0000,0.0000,nothing
479561,-0.2050,0.0653,-0.0067,0.3113,1.1965,-9.7430,1.8564,7.1196,172.6399,0.0000,0.0000,0.0000,0.0000,0.0000,nothing
479677,-0.2112,0.0513,-0.0228,0.3573,1.1858,-9.7136,1.8799,7.1032,172.6498,0.0000,0.0000,0.0000,0.0000,0.0000,nothing
479793,-0.1954,0.0412,0.0063,0.3322,1.2217,-9.7382,1.8858,7.1075,172.6441,0.0000,0.0000,0.0000,0.0000,0.0000,nothing
479909,-0.2091,0.0736,0.0055,0.3352,1.1983,-9.7543,1.8926,7.0967,172.6528,0.0000,0.0000,0.0000,0.0000,0.0000,nothing
480025,-0.2222,0.0728,-0.0161,0.2921,1.2067,-9.7358,1.8738,7.0933,172.6609,0.0000,0.0000,0.0000,0.0000,0.0000,nothing
480141,-0.2035,0.0474,0.0390,0.4292,1.2223,-9.7070,1.9376,7.1010,172.6368,0.0000,0.0000,0.0000,0.0000,0.0000,nothing
480257,-0.2495,0.0626,-0.0326,0.1514,1.2660,-9.7052,1.8326,7.1340,172.6320,0.0000,0.0000,0.0000,0.0000,0.0000,nothing
480373,-0.2198,0.0998,0.0247,0.4064,1.1660,-9.7453,1.8866,7.1023,172.6489,0.0000,0.0000,0.0000,0.0000,0.0000,nothing
480489,-0.2083,0.0791,-0.0244,0.2640,1.2103,-9.7112,1.8525,7.1022,172.6577,0.0000,0.0000,0.0000,0.0000,0.0000,nothing
480605,-0.1925,0.0549,0.0110,0.2951,1.2193,-9.7633,1.8390,7.1035,172.6599,0.0000,0.0000,0.0000,0.0000,0.0000,nothing
480721,-0.2110,0.0526,-0.0338,0.3154,1.2480,-9.7130,1.8396,7.1250,172.6390,0.0000,0.0000,0.0000,0.0000,0.0000,nothing
480837,-0.2064,0.0751,0.0548,0.2340,1.2408,-9.7118,1.7926,7.1404,172.6358,0.0000,0.0000,0.0000,0.0000,0.0000,nothing
480953,-0.2012,0.0634,0.0562,0.3376,1.2043,-9.7376,1.8104,7.1309,172.6405,0.0000,0.0000,0.0000,0.0000,0.0000,nothing
481069,-0.2245,0.0860,-0.0074,0.3370,1.2355,-9.7076,1.8266,7.1427,172.6251,0.0000,0.0000,0.0000,0.0000,0.0000,nothing
481185,-0.1862,0.0545,0.0360,0.3921,1.2259,-9.7543,1.8725,7.1442,172.6120,0.0000,0.0000,0.0000,0.0000,0.0000,nothing
481301,-0.2248,0.0815,0.0590,0.2089,1.3007,-9.7214,1.8072,7.1917,172.5824,0.0000,0.0000,0.0000,0.0000,0.0000,nothing
481417,-0.2500,0.0855,-0.0353,0.3591,1.2384,-9.7220,1.8364,7.1980,172.5690,0.0000,0.0000,0.0000,0.0000,0.0000,nothing
481533,-0.2532,0.0649,0.0067,0.3921,1.2708,-9.7310,1.8816,7.2217,172.5347,0.0000,0.0000,0.0000,0.0000,0.0000,nothing
481649,-0.2763,0.0759,0.0165,0.1514,1.2408,-9.7394,1.7817,7.2256,172.5557,0.0000,0.0000,0.0000,0.0000,0.0000,nothing
481765,-0.2596,0.1377,0.0330,0.2897,1.1086,-9.7028,1.7735,7.1548,172.6264,0.0000,0.0000,0.0000,0.0000,0.0000,nothing
481881,-0.2395,0.0635,-0.0541,0.3041,1.1702,-9.7723,1.7731,7.1217,172.6587,0.0000,0.0000,0.0000,0.0000,0.0000,nothing
481997,-0.1692,0.1020,0.0026,0.2490,1.1367,-9.7052,1.7419,7.0775,172.7092,0.0000,0.0000,0.0000,0.0000,0.0000,nothing
482113,-0.2241,0.0510,0.0030,0.4322,1.3396,-9.7436,1.8196,7.1521,172.6177,0.0000,0.0000,0.0000,0.0000,0.0000,nothing
482229,-0.2732,0.0603,0.0145,0.2783,1.1971,-9.6562,1.8016,7.1434,172.6306,0.0000,0.0000,0.0000,0.0000,0.0000,nothing
482345,-0.2239,0.0748,0.0285,0.2334,1.2193,-9.7328,1.7577,7.1430,172.6418,0.0000,0.0000,0.0000,0.0000,0.0000,nothing
482461,-0.2204,0.0657,-0.0233,0.2993,1.1726,-9.7304,1.7569,7.1155,172.6686,0.0000,0.0000,0.0000,0.0000,0.0000,nothing
482577,-0.2147,0.0607,0.0635,0.4238,1.1068,-9.7100,1.8293,7.0538,172.7106,0.0000,0.0000,0.0000,0.0000,0.0000,nothing
482693,-0.1637,0.0833,0.0164,0.1245,1.2756,-9.6987,1.7195,7.0976,172.6950,0.0000,0.0000,0.0000,0.0000,0.0000,nothing
482809,-0.2358,0.0799,-0.0414,0.4022,1.2205,-9.7388,1.7824,7.1016,172.6759,0.0000,0.0000,0.0000,0.0000,0.0000,nothing
482925,-0.1954,0.0461,0.0394,0.3621,1.1930,-9.7352,1.8156,7.0896,172.6793,0.0000,0.0000,0.0000,0.0000,0.0000,nothing
483041,-0.1730,0.0727,-0.0264,0.2831,1.1876,-9.7406,1.7993,7.0754,172.6971,0.0000,0.0000,0.0000,0.0000,0.0000,nothing
483157,-0.1831,0.0382,-0.0019,0.2191,1.2349,-9.7058,1.7478,7.0928,172.6929,0.0000,0.0000,0.0000,0.0000,0.0000,nothing
483273,-0.2084,0.0705,0.0334,0.3837,1.2408,-9.7124,1.7974,7.1110,172.6631,0.0000,0.0000,0.0000,0.0000,0.0000,nothing
483389,-0.1892,0.0582,-0.0941,0.3160,1.2390,-9.7005,1.8027,7.1274,172.6458,0.0000,0.0000,0.0000,0.0000,0.0000,nothing
483505,-0.2260,0.0660,0.0031,0.2759,1.2432,-9.7453,1.7833,7.1414,172.6370,0.0000,0.0000,0.0000,0.0000,0.0000,nothing
483621,-0.2255,0.0596,-0.0108,0.3137,1.2480,-9.7070,1.7885,7.1595,172.6182,0.0000,0.0000,0.0000,0.0000,0.0000,nothing
483737,-0.1926,0.0911,-0.0139,0.3364,1.2366,-9.7160,1.8064,7.1685,172.6051,0.0000,0.0000,0.0000,0.0000,0.0000,nothing
483853,-0.2259,0.1005,0.0322,0.2897,1.3612,-9.7394,1.7945,7.2472,172.5317,0.0000,0.0000,0.0000,0.0000,0.0000,nothing
483969,-0.2154,0.0900,-0.0022,0.3346,1.2313,-9.7597,1.8099,7.2410,172.5339,0.0000,0.0000,0.0000,0.0000,0.0000,nothing
484085,-0.2401,0.0825,-0.0183,0.3160,1.1947,-9.7579,1.8130,7.2146,172.5588,0.0000,0.0000,0.0000,0.0000,0.0000,nothing
484201,-0.2282,0.0518,0.0507,0.3059,1.1900,-9.7424,1.8102,7.1891,172.5841,0.0000,0.0000,0.0000,0.0000,0.0000,nothing
484317,-0.2076,0.0897,0.0499,0.2999,1.2211,-9.7424,1.8041,7.1843,172.5903,0.0000,0.0000,0.0000,0.0000,0.0000,nothing
484433,-0.1885,0.0431,-0.0139,0.3154,1.2313,-9.7148,1.8082,7.1878,172.5859,0.0000,0.0000,0.0000,0.0000,0.0000,nothing
484549,-0.2114,0.0459,0.0164,0.3166,1.2289,-9.7190,1.8125,7.1893,172.5835,0.0000,0.0000,0.0000,0.0000,0.0000,nothing
484665,-0.1749,0.0573,0.0145,0.3310,1.2157,-9.7262,1.8247,7.1824,172.5871,0.0000,0.0000,0.0000,0.0000,0.0000,nothing
484781,-0.2020,0.0694,0.0210,0.3202,1.2211,-9.7088,1.8296,7.1806,172.5876,0.0000,0.0000,0.0000,0.0000,0.0000,nothing
484897,-0.1884,0.0519,0.0089,0.2777,1.2594,-9.7250,1.8089,7.2001,172.5738,0.0000,0.0000,0.0000,0.0000,0.0000,nothing
485013,-0.2116,0.0618,-0.0001,0.3292,1.2337,-9.7208,1.8204,7.2030,172.5682,0.0000,0.0000,0.0000,0.0000,0.0000,nothing
485129,-0.2125,0.0776,-0.0075,0.2921,1.2678,-9.7160,1.8092,7.2258,172.5489,0.0000,0.0000,0.0000,0.0000,0.0000,nothing
485245,-0.2012,0.0751,0.0669,0.3472,1.2031,-9.7352,1.8310,7.2072,172.5614,0.0000,0.0000,0.0000,0.0000,0.0000,nothing
485361,-0.2200,0.0425,0.0172,0.3178,1.1983,-9.7615,1.8330,7.1860,172.5815,0.0000,0.0000,0.0000,0.0000,0.0000,nothing
485477,-0.2052,0.0953,0.0181,0.2999,1.2271,-9.7388,1.8247,7.1852,172.5844,0.0000,0.0000,0.0000,0.0000,0.0000,nothing
485593,-0.2275,0.0480,0.0078,0.3358,1.2396,-9.7346,1.8382,7.1920,172.5744,0.0000,0.0000,0.0000,0.0000,0.0000,nothing
485709,-0.2179,0.0650,-0.0060,0.3226,1.2181,-9.7100,1.8432,7.1874,172.5776,0.0000,0.0000,0.0000,0.0000,0.0000,nothing
485825,-0.2022,0.0777,0.0638,0.2939,1.2169,-9.7400,1.8304,7.1805,172.5875,0.0000,0.0000,0.0000,0.0000,0.0000,nothing
485941,-0.2399,0.0927,-0.0079,0.2777,1.1906,-9.7525,1.8092,7.1581,172.6144,0.0000,0.0000,0.0000,0.0000,0.0000,nothing
486057,-0.2402,0.0575,-0.0070,0.2981,1.2474,-9.7148,1.8026,7.1737,172.6010,0.0000,0.0000,0.0000,0.0000,0.0000,nothing
486173,-0.2281,0.0768,0.0297,0.2999,1.2241,-9.7172,1.7977,7.1739,172.6019,0.0000,0.0000,0.0000,0.0000,0.0000,nothing
486289,-0.2230,0.0946,0.0353,0.2616,1.2073,-9.7286,1.7708,7.1637,172.6184,0.0000,0.0000,0.0000,0.0000,0.0000,nothing
486405,-0.2075,0.0545,0.0252,0.3927,1.1858,-9.7268,1.8232,7.1419,172.6267,0.0000,0.0000,0.0000,0.0000,0.0000,nothing
486521,-0.1599,0.0643,0.0386,0.3244,1.1810,-9.7537,1.8300,7.1176,172.6485,0.0000,0.0000,0.0000,0.0000,0.0000,nothing
486637,-0.1669,0.0717,-0.0717,0.3226,1.2343,-9.7292,1.8354,7.1285,172.6366,0.0000,0.0000,0.0000,0.0000,0.0000,nothing
486753,-0.2090,0.0858,-0.0060,0.3430,1.3360,-9.7184,1.8522,7.1979,172.5651,0.0000,0.0000,0.0000,0.0000,0.0000,nothing
486869,-0.2398,0.0748,-0.0398,0.3166,1.2594,-9.7214,1.8520,7.2159,172.5478,0.0000,0.0000,0.0000,0.0000,0.0000,nothing
486985,-0.2247,0.0768,0.0367,0.3448,1.1977,-9.7591,1.8676,7.1935,172.5655,0.0000,0.0000,0.0000,0.0000,0.0000,nothing
487101,-0.1914,0.0675,0.0057,0.2963,1.1953,-9.6921,1.8547,7.1770,172.5848,0.0000,0.0000,0.0000,0.0000,0.0000,nothing
487217,-0.1347,0.0439,0.0518,0.3963,1.2217,-9.7442,1.9004,7.1734,172.5766,0.0000,0.0000,0.0000,0.0000,0.0000,nothing
487333,-0.2650,0.0652,0.0570,0.3238,1.3623,-9.6831,1.9000,7.2562,172.4966,0.0000,0.0000,0.0000,0.0000,0.0000,nothing
487449,-0.2729,0.0720,0.0226,0.3232,1.2145,-9.7651,1.8982,7.2391,172.5136,0.0000,0.0000,0.0000,0.0000,0.0000,nothing
487565,-0.2255,0.0997,0.0462,0.2670,1.1947,-9.7244,1.8645,7.2154,172.5451,0.0000,0.0000,0.0000,0.0000,0.0000,nothing
487681,-0.2109,0.0678,0.0146,0.3017,1.1828,-9.7436,1.8541,7.1857,172.5766,0.0000,0.0000,0.0000,0.0000,0.0000,nothing
487797,-0.1947,0.0758,0.0474,0.3286,1.2426,-9.7699,1.8598,7.1916,172.5694,0.0000,0.0000,0.0000,0.0000,0.0000,nothing
487913,-0.2120,0.0706,0.0042,0.2873,1.1499,-9.7034,1.8423,7.1481,172.6159,0.0000,0.0000,0.0000,0.0000,0.0000,nothing
488029,-0.1979,0.0708,-0.0142,0.2855,1.2396,-9.7430,1.8246,7.1581,172.6107,0.0000,0.0000,0.0000,0.0000,0.0000,nothing
488145,-0.2089,0.0412,0.0007,0.3705,1.1798,-9.7148,1.8589,7.1343,172.6251,0.0000,0.0000,0.0000,0.0000,0.0000,nothing
488261,-0.1651,0.0479,0.0234,0.2299,1.2624,-9.7459,1.8069,7.1587,172.6144,0.0000,0.0000,0.0000,0.0000,0.0000,nothing
488377,-0.1951,0.0860,0.0110,0.3298,1.2977,-9.6759,1.8196,7.2061,172.5653,0.0000,0.0000,0.0000,0.0000,0.0000,nothing
488493,-0.2195,0.0683,-0.0189,0.3418,1.2582,-9.7280,1.8372,7.2220,172.5455,0.0000,0.0000,0.0000,0.0000,0.0000,nothing
488609,-0.2113,0.0890,0.0507,0.3202,1.1918,-9.7064,1.8411,7.1995,172.5665,0.0000,0.0000,0.0000,0.0000,0.0000,nothing
488725,-0.2087,0.0574,0.0300,0.3089,1.2606,-9.7280,1.8373,7.2175,172.5499,0.0000,0.0000,0.0000,0.0000,0.0000,nothing
488841,-0.2423,0.0369,-0.0004,0.3286,1.2774,-9.7196,1.8456,7.2440,172.5221,0.0000,0.0000,0.0000,0.0000,0.0000,nothing
488957,-0.2331,0.0399,0.0064,0.2879,1.2001,-9.7513,1.8288,7.2209,172.5487,0.0000,0.0000,0.0000,0.0000,0.0000,nothing
489073,-0.1396,0.0382,-0.0472,0.4040,1.1002,-9.7597,1.8816,7.1413,172.6124,0.0000,0.0000,0.0000,0.0000,0.0000,nothing
489189,-0.1351,0.0652,0.0093,0.4645,1.2151,-9.7430,1.9645,7.1373,172.5945,0.0000,0.0000,0.0000,0.0000,0.0000,nothing
489305,-0.2091,0.0697,-0.0634,0.1197,1.2827,-9.7358,1.8378,7.1743,172.5916,0.0000,0.0000,0.0000,0.0000,0.0000,nothing
489421,-0.2278,0.0688,0.0240,0.1419,1.2432,-9.6741,1.7379,7.1891,172.6016,0.0000,0.0000,0.0000,0.0000,0.0000,nothing
489537,-0.2189,0.0683,0.0281,0.4669,1.1894,-9.7364,1.8367,7.1660,172.6000,0.0000,0.0000,0.0000,0.0000,0.0000,nothing
489653,-0.2255,0.0817,-0.0145,0.3687,1.1690,-9.7531,1.8681,7.1323,172.6246,0.0000,0.0000,0.0000,0.0000,0.0000,nothing
489769,-0.2289,0.0802,0.0451,0.1191,1.2289,-9.7130,1.7512,7.1402,172.6460,0.0000,0.0000,0.0000,0.0000,0.0000,nothing
489885,-0.1824,0.0878,-0.0185,0.4148,1.2055,-9.7130,1.8187,7.1331,172.6364,0.0000,0.0000,0.0000,0.0000,0.0000,nothing
490001,-0.1952,0.0461,-0.0458,0.3909,1.2055,-9.7453,1.8648,7.1244,172.6331,0.0000,0.0000,0.0000,0.0000,0.0000,nothing
490117,-0.2078,0.0789,0.0446,0.2586,1.2211,-9.7190,1.8296,7.1278,172.6387,0.0000,0.0000,0.0000,0.0000,0.0000,nothing
490233,-0.1969,0.0829,0.0037,0.3208,1.1660,-9.7549,1.8337,7.0963,172.6683,0.0000,0.0000,0.0000,0.0000,0.0000,nothing
490349,-0.2241,0.1074,0.0109,0.3681,1.1870,-9.7358,1.8653,7.0813,172.6748,0.0000,0.0000,0.0000,0.0000,0.0000,nothing
490465,-0.2282,0.0329,0.0417,0.2945,1.1918,-9.7388,1.8507,7.0705,172.6889,0.0000,0.0000,0.0000,0.0000,0.0000,nothing
490581,-0.1197,0.0464,-0.0308,0.2729,1.0690,-9.7465,1.8251,6.9892,172.7742,0.0000,0.0000,0.0000,0.0000,0.0000,nothing
490697,-0.1280,0.0543,0.0399,0.2724,1.3282,-9.6304,1.8032,7.0745,172.6970,0.0000,0.0000,0.0000,0.0000,0.0000,nothing
490813,-0.2652,0.0800,0.0033,0.3292,1.2582,-9.7944,1.8139,7.0989,172.6707,0.0000,0.0000,0.0000,0.0000,0.0000,nothing
490929,-0.2623,0.0372,-0.0100,0.4597,1.1959,-9.7549,1.9006,7.0872,172.6599,0.0000,0.0000,0.0000,0.0000,0.0000,nothing
491045,-0.2720,0.0783,0.0237,0.1245,1.1361,-9.7286,1.7835,7.0447,172.7308,0.0000,0.0000,0.0000,0.0000,0.0000,nothing
491161,-0.0633,0.0477,-0.0368,0.2945,0.9523,-9.7759,1.7770,6.8962,172.8764,0.0000,0.0000,0.0000,0.0000,0.0000,nothing
491277,-0.0953,0.0254,0.0372,0.4459,1.2714,-9.7256,1.8596,6.9507,172.8025,0.0000,0.0000,0.0000,0.0000,0.0000,nothing
491393,-0.1853,0.0705,0.0374,0.2849,1.3270,-9.6969,1.8405,7.0344,172.7265,0.0000,0.0000,0.0000,0.0000,0.0000,nothing
491509,-0.2281,0.0886,0.0308,0.3831,1.2414,-9.7436,1.8799,7.0565,172.6949,0.0000,0.0000,0.0000,0.0000,0.0000,nothing
491625,-0.2461,0.0619,-0.0207,0.3340,1.2516,-9.7328,1.8868,7.0833,172.6673,0.0000,0.0000,0.0000,0.0000,0.0000,nothing
491741,-0.2138,0.0980,-0.0023,0.3244,1.2115,-9.7352,1.8875,7.0839,172.6664,0.0000,0.0000,0.0000,0.0000,0.0000,nothing
491857,-0.2245,0.0962,0.0049,0.2867,1.2097,-9.7418,1.8661,7.0831,172.6728,0.0000,0.0000,0.0000,0.0000,0.0000,nothing
491973,-0.2120,0.0544,-0.0207,0.2777,1.2181,-9.7388,1.8416,7.0874,172.6749,0.0000,0.0000,0.0000,0.0000,0.0000,nothing
492089,-0.2413,0.0788,-0.0068,0.3286,1.1774,-9.7609,1.8488,7.0661,172.6937,0.0000,0.0000,0.0000,0.0000,0.0000,nothing
492205,-0.1892,0.0686,0.0187,0.2496,1.2199,-9.7226,1.8099,7.0744,172.6955,0.0000,0.0000,0.0000,0.0000,0.0000,nothing
492321,-0.2067,0.0596,-0.0125,0.3083,1.2259,-9.7519,1.8086,7.0831,172.6874,0.0000,0.0000,0.0000,0.0000,0.0000,nothing
492437,-0.2009,0.0750,0.0289,0.3400,1.2223,-9.7023,1.8268,7.0923,172.6738,0.0000,0.0000,0.0000,0.0000,0.0000,nothing
492553,-0.2263,0.0519,-0.0650,0.3328,1.2139,-9.7256,1.8386,7.0942,172.6691,0.0000,0.0000,0.0000,0.0000,0.0000,nothing
492669,-0.2234,0.0811,-0.0434,0.2801,1.2139,-9.7759,1.8175,7.0923,172.6762,0.0000,0.0000,0.0000,0.0000,0.0000,nothing
492785,-0.2368,0.0763,-0.0132,0.3238,1.2079,-9.7669,1.8243,7.0877,172.6790,0.0000,0.0000,0.0000,0.0000,0.0000,nothing
492901,-0.2075,0.0732,0.0101,0.3184,1.2708,-9.7424,1.8275,7.1217,172.6452,0.0000,0.0000,0.0000,0.0000,0.0000,nothing
493017,-0.2105,0.0409,-0.0034,0.3166,1.2450,-9.7340,1.8295,7.1380,172.6288,0.0000,0.0000,0.0000,0.0000,0.0000,nothing
493133,-0.2304,0.1039,-0.0240,0.3370,1.2079,-9.7112,1.8438,7.1329,172.6303,0.0000,0.0000,0.0000,0.0000,0.0000,nothing
493249,-0.2128,0.0818,0.0179,0.2903,1.2073,-9.7465,1.8287,7.1254,172.6413,0.0000,0.0000,0.0000,0.0000,0.0000,nothing
493365,-0.2113,0.0731,-0.0215,0.3502,1.2289,-9.7400,1.8501,7.1315,172.6300,0.0000,0.0000,0.0000,0.0000,0.0000,nothing
493481,-0.2001,0.0533,0.0889,0.2921,1.2091,-9.7238,1.8359,7.1268,172.6381,0.0000,0.0000,0.0000,0.0000,0.0000,nothing
493597,-0.2005,0.0626,0.0027,0.3454,1.2355,-9.7118,1.8543,7.1387,172.6220,0.0000,0.0000,0.0000,0.0000,0.0000,nothing
493713,-0.1854,0.0598,0.0110,0.3065,1.2205,-9.7304,1.8479,7.1394,172.6230,0.0000,0.0000,0.0000,0.0000,0.0000,nothing
493829,-0.2196,0.0693,-0.0052,0.4340,1.2301,-9.7370,1.9163,7.1448,172.6001,0.0000,0.0000,0.0000,0.0000,0.0000,nothing
493945,-0.2124,0.0687,0.0218,0.3023,1.2169,-9.7160,1.9015,7.1439,172.6048,0.0000,0.0000,0.0000,0.0000,0.0000,nothing
494061,-0.2026,0.0713,-0.0348,0.3029,1.2007,-9.7501,1.8880,7.1312,172.6206,0.0000,0.0000,0.0000,0.0000,0.0000,nothing
494177,-0.2324,0.0855,-0.0138,0.3358,1.2241,-9.7238,1.8954,7.1351,172.6149,0.0000,0.0000,0.0000,0.0000,0.0000,nothing
494293,-0.2067,0.0472,-0.0327,0.3232,1.0930,-9.7585,1.8944,7.0603,172.6875,0.0000,0.0000,0.0000,0.0000,0.0000,nothing
494409,-0.1906,0.0523,-0.0307,0.3017,1.3767,-9.7585,1.8803,7.1573,172.5974,0.0000,0.0000,0.0000,0.0000,0.0000,nothing
494525,-0.1960,0.0556,0.0309,0.2855,1.3719,-9.7459,1.8584,7.2427,172.5202,0.0000,0.0000,0.0000,0.0000,0.0000,nothing
494641,-0.2113,0.0727,-0.0105,0.3669,1.2343,-9.7070,1.8872,7.2426,172.5130,0.0000,0.0000,0.0000,0.0000,0.0000,nothing
494757,-0.2279,0.0695,-0.0097,0.2700,1.2408,-9.6897,1.8569,7.2478,172.5157,0.0000,0.0000,0.0000,0.0000,0.0000,nothing
494873,-0.1989,0.0902,-0.0102,0.3460,1.2145,-9.7082,1.8737,7.2356,172.5232,0.0000,0.0000,0.0000,0.0000,0.0000,nothing
494989,-0.1840,0.0551,0.0124,0.2724,1.2223,-9.7130,1.8457,7.2290,172.5366,0.0000,0.0000,0.0000,0.0000,0.0000,nothing
495105,-0.1984,0.0671,0.0010,0.3286,1.2085,-9.7394,1.8529,7.2131,172.5503,0.0000,0.0000,0.0000,0.0000,0.0000,nothing
495221,-0.1922,0.0713,0.0341,0.3226,1.2546,-9.7352,1.8559,7.2257,172.5373,0.0000,0.0000,0.0000,0.0000,0.0000,nothing
495337,-0.1801,0.0901,0.0154,0.3178,1.2283,-9.7489,1.8556,7.2209,172.5421,0.0000,0.0000,0.0000,0.0000,0.0000,nothing
495453,-0.2154,0.0851,0.0012,0.3011,1.2408,-9.7250,1.8459,7.2255,172.5399,0.0000,0.0000,0.0000,0.0000,0.0000,nothing
495569,-0.2080,0.0661,0.0121,0.3352,1.2043,-9.7519,1.8567,7.2066,172.5556,0.0000,0.0000,0.0000,0.0000,0.0000,nothing
495685,-0.1776,0.0537,0.0165,0.2245,1.2313,-9.7418,1.8020,7.2061,172.5697,0.0000,0.0000,0.0000,0.0000,0.0000,nothing
495801,-0.1794,0.0695,-0.0161,0.3071,1.2133,-9.7394,1.8010,7.1952,172.5805,0.0000,0.0000,0.0000,0.0000,0.0000,nothing
495917,-0.1978,0.0645,0.0187,0.4070,1.1942,-9.7346,1.8585,7.1745,172.5862,0.0000,0.0000,0.0000,0.0000,0.0000,nothing
496033,-0.1970,0.0838,0.0060,0.2849,1.2169,-9.7232,1.8393,7.1701,172.5953,0.0000,0.0000,0.0000,0.0000,0.0000,nothing
496149,-0.2000,0.0444,-0.0080,0.2891,1.2055,-9.7567,1.8238,7.1572,172.6118,0.0000,0.0000,0.0000,0.0000,0.0000,nothing
496265,-0.2026,0.0631,-0.0642,0.3448,1.1918,-9.6879,1.8436,7.1424,172.6211,0.0000,0.0000,0.0000,0.0000,0.0000,nothing
496381,-0.2114,0.0935,0.0615,0.2568,1.2223,-9.7322,1.8092,7.1437,172.6284,0.0000,0.0000,0.0000,0.0000,0.0000,nothing
496497,-0.2136,0.0886,0.0442,0.3131,1.2121,-9.7202,1.8113,7.1398,172.6317,0.0000,0.0000,0.0000,0.0000,0.0000,nothing
496613,-0.1981,0.0828,-0.0264,0.3382,1.1780,-9.7094,1.8282,7.1172,172.6494,0.0000,0.0000,0.0000,0.0000,0.0000,nothing
496729,-0.2016,0.0742,-0.0286,0.3143,1.2115,-9.7214,1.8291,7.1155,172.6508,0.0000,0.0000,0.0000,0.0000,0.0000,nothing
496845,-0.2121,0.0564,0.0380,0.3292,1.1918,-9.7106,1.8389,7.1033,172.6602,0.0000,0.0000,0.0000,0.0000,0.0000,nothing
496961,-0.2020,0.0802,-0.0258,0.3430,1.1750,-9.7244,1.8555,7.0815,172.6770,0.0000,0.0000,0.0000,0.0000,0.0000,nothing
497077,-0.2135,0.0840,0.0800,0.3190,1.1846,-9.7597,1.8559,7.0650,172.6929,0.0000,0.0000,0.0000,0.0000,0.0000,nothing
497193,-0.2091,0.0911,-0.1318,0.3663,1.1451,-9.7100,1.8848,7.0306,172.7186,0.0000,0.0000,0.0000,0.0000,0.0000,nothing
497309,-0.1599,0.0409,0.0180,0.1574,1.1223,-9.7489,1.7881,6.9843,172.7883,0.0000,0.0000,0.0000,0.0000,0.0000,nothing
497425,-0.1703,0.0494,0.0363,0.2975,1.2390,-9.7340,1.7830,7.0109,172.7637,0.0000,0.0000,0.0000,0.0000,0.0000,nothing
497541,-0.1750,0.0828,-0.0229,0.3370,1.1912,-9.7597,1.8010,7.0053,172.7647,0.0000,0.0000,0.0000,0.0000,0.0000,nothing
497657,-0.1457,0.0455,0.0718,0.2215,1.2522,-9.7190,1.7504,7.0387,172.7448,0.0000,0.0000,0.0000,0.0000,0.0000,nothing
497773,-0.1963,0.0902,-0.0008,0.4082,1.4084,-9.7034,1.8139,7.1601,172.6114,0.0000,0.0000,0.0000,0.0000,0.0000,nothing
497889,-0.3126,0.0907,0.0161,0.3286,1.2803,-9.7352,1.8242,7.1929,172.5770,0.0000,0.0000,0.0000,0.0000,0.0000,nothing
498005,-0.2669,0.1039,-0.0350,0.3490,1.1810,-9.7406,1.8455,7.1645,172.5992,0.0000,0.0000,0.0000,0.0000,0.0000,nothing
498121,-0.2117,0.0960,-0.0832,0.2281,1.1499,-9.7136,1.7946,7.1231,172.6521,0.0000,0.0000,0.0000,0.0000,0.0000,nothing
498237,-0.1925,0.0566,0.0538,0.3466,1.1971,-9.7208,1.8178,7.1124,172.6566,0.0000,0.0000,0.0000,0.0000,0.0000,nothing
498353,-0.2162,0.0499,0.0108,0.3292,1.2570,-9.7286,1.8282,7.1370,172.6302,0.0000,0.0000,0.0000,0.0000,0.0000,nothing
498469,-0.1940,0.0806,-0.1192,0.3508,1.2217,-9.7286,1.8503,7.1386,172.6231,0.0000,0.0000,0.0000,0.0000,0.0000,nothing
498585,-0.2134,0.0663,-0.0094,0.3154,1.2199,-9.7382,1.8494,7.1384,172.6235,0.0000,0.0000,0.0000,0.0000,0.0000,nothing
498701,-0.1820,0.0552,0.0364,0.3597,1.2241,-9.7489,1.8742,7.1397,172.6159,0.0000,0.0000,0.0000,0.0000,0.0000,nothing
498817,-0.1996,0.0743,0.0277,0.3148,1.2534,-9.7202,1.8708,7.1601,172.5970,0.0000,0.0000,0.0000,0.0000,0.0000,nothing
498933,-0.2059,0.1084,0.0110,0.3352,1.2181,-9.7537,1.8790,7.1556,172.5993,0.0000,0.0000,0.0000,0.0000,0.0000,nothing
499049,-0.1909,0.0487,-0.0282,0.2640,1.1936,-9.7154,1.8456,7.1402,172.6227,0.0000,0.0000,0.0000,0.0000,0.0000,nothing
499165,-0.2049,0.0622,0.0498,0.3406,1.1792,-9.7501,1.8597,7.1153,172.6432,0.0000,0.0000,0.0000,0.0000,0.0000,nothing
499281,-0.1885,0.0705,0.0198,0.3573,1.2606,-9.7076,1.8828,7.1431,172.6104,0.0000,0.0000,0.0000,0.0000,0.0000,nothing
499397,-0.2226,0.0928,0.0393,0.3125,1.1810,-9.7328,1.8770,7.1203,172.6340,0.0000,0.0000,0.0000,0.0000,0.0000,nothing
499513,-0.1988,0.0853,-0.0406,0.3256,1.2349,-9.6873,1.8803,7.1342,172.6196,0.0000,0.0000,0.0000,0.0000,0.0000,nothing
499629,-0.2339,0.0843,0.0627,0.3298,1.2241,-9.7639,1.8842,7.1350,172.6179,0.0000,0.0000,0.0000,0.0000,0.0000,nothing
499745,-0.2442,0.0917,-0.0176,0.3125,1.1840,-9.7166,1.8787,7.1159,172.6378,0.0000,0.0000,0.0000,0.0000,0.0000,nothing
499861,-0.2102,0.0612,-0.0232,0.3190,1.1882,-9.7268,1.8773,7.1004,172.6532,0.0000,0.0000,0.0000,0.0000,0.0000,nothing
499977,-0.1831,0.0481,0.0150,0.3472,1.1086,-9.7136,1.8929,7.0411,172.7064,0.0000,0.0000,0.0000,0.0000,0.0000,nothing
500093,-0.1455,0.0384,0.0128,0.5178,1.0822,-9.7190,2.0065,6.9717,172.7425,0.0000,0.0000,0.0000,0.0000,0.0000,nothing
500209,-0.1599,0.0417,-0.0453,0.1814,1.2714,-9.6999,1.9123,7.0211,172.7206,0.0000,0.0000,0.0000,0.0000,0.0000,nothing
500325,-0.2076,0.0960,0.0578,0.0251,1.3234,-9.6807,1.7363,7.0976,172.6910,0.0000,0.0000,0.0000,0.0000,0.0000,nothing
500441,-0.1952,0.1183,-0.0326,0.6231,1.1457,-9.7597,1.9263,7.0561,172.6831,0.0000,0.0000,0.0000,0.0000,0.0000,nothing
500557,-0.2147,0.0750,0.0654,0.3388,1.2211,-9.6879,1.9324,7.0684,172.6696,0.0000,0.0000,0.0000,0.0000,0.0000,nothing
500673,-0.3122,0.0626,0.0323,0.1455,1.3821,-9.6957,1.8243,7.1728,172.5964,0.0000,0.0000,0.0000,0.0000,0.0000,nothing
500789,-0.1756,0.0751,-0.0429,0.3095,1.0242,-9.6244,1.8251,7.0638,172.7019,0.0000,0.0000,0.0000,0.0000,0.0000,nothing
500905,-0.1067,0.1296,0.0604,0.5692,1.0948,-9.7430,1.9753,6.9975,172.7263,0.0000,0.0000,0.0000,0.0000,0.0000,nothing
501021,-0.1896,0.0301,-0.0514,0.1449,1.2929,-9.8291,1.8602,7.0477,172.7085,0.0000,0.0000,0.0000,0.0000,0.0000,nothing
501137,-0.1959,0.0958,-0.0203,0.1514,1.2349,-9.6586,1.7639,7.0714,172.7098,0.0000,0.0000,0.0000,0.0000,0.0000,nothing
501253,-0.1879,0.1144,0.0453,0.4364,1.1900,-9.6963,1.8431,7.0633,172.6978,0.0000,0.0000,0.0000,0.0000,0.0000,nothing
501369,-0.2643,0.1040,-0.0204,0.0275,1.3713,-9.7208,1.6745,7.1604,172.6444,0.0000,0.0000,0.0000,0.0000,0.0000,nothing
501485,-0.2191,0.1262,0.0303,0.2442,1.2097,-9.6562,1.6510,7.1582,172.6519,0.0000,0.0000,0.0000,0.0000,0.0000,nothing
501601,-0.2262,0.0804,0.0215,0.4519,1.0966,-9.7902,1.7492,7.0804,172.7046,0.0000,0.0000,0.0000,0.0000,0.0000,nothing
501717,-0.1193,0.0716,0.0091,0.3436,1.0595,-9.7382,1.7752,6.9929,172.7831,0.0000,0.0000,0.0000,0.0000,0.0000,nothing
501833,-0.1602,0.0558,0.0130,0.3406,1.2672,-9.6795,1.7974,7.0388,172.7330,0.0000,0.0000,0.0000,0.0000,0.0000,nothing
501949,-0.3130,0.0953,0.0747,0.1467,1.4958,-9.7400,1.7025,7.2090,172.5906,0.0000,0.0000,0.0000,0.0000,0.0000,nothing
502065,-0.3226,0.1272,0.0142,0.3065,1.4527,-9.8333,1.7089,7.3297,172.4716,0.0000,0.0000,0.0000,0.0000,0.0000,nothing
502181,-0.3497,0.1306,0.0309,0.2388,1.2492,-9.6544,1.6788,7.3337,172.4745,0.0000,0.0000,0.0000,0.0000,0.0000,nothing
502297,-0.3073,0.0747,0.0117,0.1329,1.2043,-9.7274,1.5886,7.3062,172.5213,0.0000,0.0000,0.0000,0.0000,0.0000,nothing
502413,-0.2026,0.0781,-0.0300,0.2562,1.1415,-9.6873,1.5803,7.2476,172.5803,0.0000,0.0000,0.0000,0.0000,0.0000,nothing
502529,-0.1410,0.0525,0.0067,0.4621,1.1271,-9.7519,1.6920,7.1814,172.6200,0.0000,0.0000,0.0000,0.0000,0.0000,nothing
502645,-0.1648,0.0510,0.0582,0.1868,1.1834,-9.7519,1.6316,7.1550,172.6595,0.0000,0.0000,0.0000,0.0000,0.0000,nothing
502761,-0.2001,0.0836,0.0266,0.3675,1.1912,-9.7549,1.6828,7.1351,172.6671,0.0000,0.0000,0.0000,0.0000,0.0000,nothing
502877,-0.1416,0.0509,0.0371,0.3256,1.1726,-9.7160,1.7050,7.1094,172.6869,0.0000,0.0000,0.0000,0.0000,0.0000,nothing
502993,-0.1707,0.1253,0.0410,0.5381,1.1229,-9.6083,1.8513,7.0648,172.6943,0.0000,0.0000,0.0000,0.0000,0.0000,nothing
503109,-0.2642,0.1024,0.0624,0.4340,1.0786,-9.7394,1.9198,6.9896,172.7490,0.0000,0.0000,0.0000,0.0000,0.0000,nothing
503225,-0.2686,0.0519,-0.0022,0.1844,1.3893,-9.6173,1.8372,7.1117,172.6525,0.0000,0.0000,0.0000,0.0000,0.0000,nothing
503341,-0.2724,0.0673,-0.0070,0.4280,1.2277,-9.8603,1.9010,7.1096,172.6381,0.0000,0.0000,0.0000,0.0000,0.0000,nothing
503457,-0.4225,0.0574,0.0153,0.0174,1.4869,-9.7232,1.7206,7.2688,172.5282,0.0000,0.0000,0.0000,0.0000,0.0000,nothing
503573,-0.1992,0.1260,0.0867,0.3585,1.1307,-9.5640,1.7611,7.2166,172.5694,0.0000,0.0000,0.0000,0.0000,0.0000,nothing
503689,-0.2841,0.1216,-0.0469,0.3029,1.2480,-9.6681,1.7629,7.2300,172.5559,0.0000,0.0000,0.0000,0.0000,0.0000,nothing
503805,-0.2350,0.0811,0.0496,0.0317,1.1092,-9.7322,1.6051,7.1574,172.6630,0.0000,0.0000,0.0000,0.0000,0.0000,nothing
503921,-0.2532,0.0731,0.0472,0.4382,1.1379,-9.8208,1.6993,7.1014,172.6960,0.0000,0.0000,0.0000,0.0000,0.0000,nothing
504037,-0.2533,0.0671,0.0663,0.2406,1.2055,-9.7585,1.6694,7.0953,172.7090,0.0000,0.0000,0.0000,0.0000,0.0000,nothing
504153,-0.1592,0.1032,-0.0035,0.2436,1.1014,-9.6376,1.6466,7.0380,172.7700,0.0000,0.0000,0.0000,0.0000,0.0000,nothing
504269,-0.0389,0.1865,0.0997,0.7482,1.0942,-9.7442,1.9193,6.9735,172.7646,0.0000,0.0000,0.0000,0.0000,0.0000,nothing
504385,-0.2598,0.1036,-0.0050,0.3125,1.4815,-9.9297,1.9054,7.1278,172.6194,0.0000,0.0000,0.0000,0.0000,0.0000,nothing
504501,-0.2973,0.0601,0.0263,0.2694,1.1481,-9.7370,1.8722,7.0872,172.6672,0.0000,0.0000,0.0000,0.0000,0.0000,nothing
504617,-0.2919,0.0885,0.0935,0.2735,1.3234,-9.7382,1.8444,7.1522,172.6114,0.0000,0.0000,0.0000,0.0000,0.0000,nothing
504733,-0.2234,0.0803,0.0019,0.2418,1.1654,-9.7789,1.8005,7.1163,172.6571,0.0000,0.0000,0.0000,0.0000,0.0000,nothing
504849,-0.2410,0.1009,0.0035,0.2753,1.2229,-9.6957,1.7819,7.1233,172.6550,0.0000,0.0000,0.0000,0.0000,0.0000,nothing
504965,-0.2099,0.0911,0.0259,0.3747,1.1786,-9.7447,1.8224,7.1000,172.6675,0.0000,0.0000,0.0000,0.0000,0.0000,nothing
505081,-0.2266,0.0753,-0.0038,0.2951,1.2133,-9.7262,1.8126,7.1008,172.6692,0.0000,0.0000,0.0000,0.0000,0.0000,nothing
505197,-0.2382,0.0864,-0.0211,0.2981,1.2618,-9.7298,1.8054,7.1293,172.6434,0.0000,0.0000,0.0000,0.0000,0.0000,nothing
505313,-0.2225,0.0783,0.0018,0.3382,1.1959,-9.7597,1.8218,7.1145,172.6536,0.0000,0.0000,0.0000,0.0000,0.0000,nothing
505429,-0.2442,0.0708,-0.0072,0.3202,1.1900,-9.7597,1.8262,7.0978,172.6687,0.0000,0.0000,0.0000,0.0000,0.0000,nothing
505545,-0.2357,0.0862,0.0345,0.2795,1.1666,-9.7543,1.8066,7.0698,172.7008,0.0000,0.0000,0.0000,0.0000,0.0000,nothing
505661,-0.2324,0.0911,0.0022,0.3023,1.1959,-9.7483,1.8022,7.0619,172.7095,0.0000,0.0000,0.0000,0.0000,0.0000,nothing
505777,-0.2331,0.0709,0.0814,0.3532,1.1684,-9.7681,1.8276,7.0373,172.7269,0.0000,0.0000,0.0000,0.0000,0.0000,nothing
505893,-0.2428,0.0642,-0.0053,0.2628,1.1271,-9.7477,1.7983,6.9929,172.7773,0.0000,0.0000,0.0000,0.0000,0.0000,nothing
506009,-0.1453,0.0243,-0.0170,0.2293,1.1271,-9.7777,1.7518,6.9510,172.8295,0.0000,0.0000,0.0000,0.0000,0.0000,nothing
506125,-0.1482,0.0469,-0.0072,0.2281,1.1612,-9.7603,1.7095,6.9342,172.8562,0.0000,0.0000,0.0000,0.0000,0.0000,nothing
506241,-0.1460,0.0732,0.0502,0.5124,1.2624,-9.7507,1.8371,6.9777,172.7822,0.0000,0.0000,0.0000,0.0000,0.0000,nothing
506357,-0.2049,0.0887,-0.0346,0.1431,1.2845,-9.7519,1.7366,7.0304,172.7562,0.0000,0.0000,0.0000,0.0000,0.0000,nothing
506473,-0.2466,0.0665,0.0541,0.3567,1.1971,-9.7112,1.7717,7.0296,172.7484,0.0000,0.0000,0.0000,0.0000,0.0000,nothing
506589,-0.2101,0.0949,0.0198,0.3675,1.2085,-9.7011,1.8096,7.0363,172.7325,0.0000,0.0000,0.0000,0.0000,0.0000,nothing
506705,-0.1932,0.0847,0.0397,0.3059,1.1780,-9.7316,1.8074,7.0225,172.7464,0.0000,0.0000,0.0000,0.0000,0.0000,nothing
506821,-0.2009,0.0586,0.0361,0.3621,1.1936,-9.7519,1.8378,7.0176,172.7434,0.0000,0.0000,0.0000,0.0000,0.0000,nothing
506937,-0.1795,0.0544,-0.0391,0.2382,1.2582,-9.6945,1.7938,7.0549,172.7183,0.0000,0.0000,0.0000,0.0000,0.0000,nothing
507053,-0.1756,0.0502,0.0079,0.2759,1.2522,-9.7208,1.7757,7.0832,172.6954,0.0000,0.0000,0.0000,0.0000,0.0000,nothing
507169,-0.2301,0.0796,0.0135,0.3166,1.2247,-9.6813,1.7839,7.0954,172.6816,0.0000,0.0000,0.0000,0.0000,0.0000,nothing
507285,-0.2593,0.0483,0.0173,0.3795,1.1666,-9.7364,1.8272,7.0686,172.6967,0.0000,0.0000,0.0000,0.0000,0.0000,nothing
507401,-0.2214,0.0894,-0.0263,0.2574,1.1576,-9.6981,1.7955,7.0423,172.7301,0.0000,0.0000,0.0000,0.0000,0.0000,nothing
507517,-0.1934,0.0833,0.0833,0.2676,1.1989,-9.7370,1.7722,7.0398,172.7384,0.0000,0.0000,0.0000,0.0000,0.0000,nothing
507633,-0.1913,0.0803,0.0462,0.3370,1.1965,-9.7268,1.7919,7.0367,172.7365,0.0000,0.0000,0.0000,0.0000,0.0000,nothing
507749,-0.1990,0.0649,-0.0359,0.3190,1.2193,-9.7160,1.7993,7.0479,172.7238,0.0000,0.0000,0.0000,0.0000,0.0000,nothing
507865,-0.2056,0.0570,-0.0113,0.2891,1.2390,-9.7005,1.7888,7.0707,172.7043,0.0000,0.0000,0.0000,0.0000,0.0000,nothing
507981,-0.2169,0.0538,0.0230,0.4507,1.2145,-9.7388,1.8730,7.0738,172.6800,0.0000,0.0000,0.0000,0.0000,0.0000,nothing
508097,-0.1716,0.0579,0.0089,0.3005,1.2211,-9.7238,1.8613,7.0818,172.6752,0.0000,0.0000,0.0000,0.0000,0.0000,nothing
508213,-0.2129,0.0678,-0.0125,0.3160,1.2019,-9.7154,1.8601,7.0785,172.6787,0.0000,0.0000,0.0000,0.0000,0.0000,nothing
508329,-0.2219,0.0626,-0.0151,0.2927,1.2744,-9.7244,1.8450,7.1169,172.6454,0.0000,0.0000,0.0000,0.0000,0.0000,nothing
508445,-0.2063,0.0729,0.0086,0.3364,1.2432,-9.7346,1.8569,7.1326,172.6272,0.0000,0.0000,0.0000,0.0000,0.0000,nothing
508561,-0.1955,0.0766,-0.0098,0.3113,1.1971,-9.6861,1.8539,7.1236,172.6367,0.0000,0.0000,0.0000,0.0000,0.0000,nothing
508677,-0.1819,0.0506,-0.0108,0.3328,1.2055,-9.7489,1.8625,7.1158,172.6421,0.0000,0.0000,0.0000,0.0000,0.0000,nothing
508793,-0.2027,0.0399,0.0264,0.3017,1.2307,-9.7376,1.8523,7.1242,172.6366,0.0000,0.0000,0.0000,0.0000,0.0000,nothing
508909,-0.2183,0.0822,0.0025,0.3591,1.2307,-9.7238,1.8769,7.1326,172.6221,0.0000,0.0000,0.0000,0.0000,0.0000,nothing
509025,-0.1894,0.0404,-0.0170,0.2867,1.2055,-9.7268,1.8568,7.1255,172.6341,0.0000,0.0000,0.0000,0.0000,0.0000,nothing
509141,-0.2282,0.0744,-0.0090,0.3035,1.2325,-9.7244,1.8485,7.1349,172.6271,0.0000,0.0000,0.0000,0.0000,0.0000,nothing
509257,-0.2024,0.0815,0.0221,0.3023,1.2456,-9.7196,1.8403,7.1514,172.6132,0.0000,0.0000,0.0000,0.0000,0.0000,nothing
509373,-0.2513,0.0852,0.0106,0.2885,1.2570,-9.7376,1.8246,7.1715,172.5977,0.0000,0.0000,0.0000,0.0000,0.0000,nothing
509489,-0.3156,0.0788,0.0239,0.2909,1.2642,-9.7376,1.8118,7.1938,172.5792,0.0000,0.0000,0.0000,0.0000,0.0000,nothing
509605,-0.2453,0.0679,0.0252,0.2933,1.0960,-9.7920,1.8011,7.1124,172.6608,0.0000,0.0000,0.0000,0.0000,0.0000,nothing
509721,-0.1550,0.0489,0.0641,0.3196,1.0882,-9.7262,1.8080,7.0394,172.7299,0.0000,0.0000,0.0000,0.0000,0.0000,nothing
509837,-0.1726,0.0507,0.0027,0.2143,1.2420,-9.7244,1.7525,7.0631,172.7206,0.0000,0.0000,0.0000,0.0000,0.0000,nothing
509953,-0.1823,0.0713,0.0172,0.2287,1.2929,-9.7142,1.7109,7.1147,172.6804,0.0000,0.0000,0.0000,0.0000,0.0000,nothing
510069,-0.2117,0.1159,0.0405,0.3095,1.2151,-9.7567,1.7201,7.1128,172.6801,0.0000,0.0000,0.0000,0.0000,0.0000,nothing
510185,-0.2395,0.0953,0.0224,0.4591,1.0002,-9.6825,1.8176,6.9915,172.7738,0.0000,0.0000,0.0000,0.0000,0.0000,nothing
510301,-0.0251,0.0065,-0.0414,0.3316,1.0511,-9.7962,1.8287,6.9040,172.8556,0.0000,0.0000,0.0000,0.0000,0.0000,nothing
510417,-0.0976,0.0697,0.0345,0.3005,1.3234,-9.6903,1.8218,6.9907,172.7735,0.0000,0.0000,0.0000,0.0000,0.0000,nothing
510533,-0.2395,0.0875,0.1496,0.4136,1.3258,-9.7453,1.8806,7.0660,172.6856,0.0000,0.0000,0.0000,0.0000,0.0000,nothing
510649,-0.2451,0.0808,-0.0102,0.2999,1.2486,-9.7160,1.8679,7.0913,172.6643,0.0000,0.0000,0.0000,0.0000,0.0000,nothing
510765,-0.2432,0.1024,-0.0345,0.3813,1.2091,-9.7124,1.9042,7.0913,172.6550,0.0000,0.0000,0.0000,0.0000,0.0000,nothing
510881,-0.2011,0.0728,-0.0536,0.3538,1.1906,-9.7525,1.9200,7.0777,172.6639,0.0000,0.0000,0.0000,0.0000,0.0000,nothing
510997,-0.2313,0.0709,-0.0241,0.3280,1.1870,-9.7052,1.9202,7.0668,172.6744,0.0000,0.0000,0.0000,0.0000,0.0000,nothing
511113,-0.1845,0.0770,0.0416,0.2574,1.2169,-9.7124,1.8788,7.0741,172.6782,0.0000,0.0000,0.0000,0.0000,0.0000,nothing
511229,-0.2054,0.0449,0.0623,0.3579,1.2133,-9.6951,1.9007,7.0795,172.6673,0.0000,0.0000,0.0000,0.0000,0.0000,nothing
511345,-0.2014,0.0633,-0.0371,0.3047,1.2552,-9.7412,1.8883,7.1055,172.6454,0.0000,0.0000,0.0000,0.0000,0.0000,nothing
511461,-0.1763,0.0930,-0.1006,0.3514,1.1977,-9.6981,1.9053,7.0986,172.6476,0.0000,0.0000,0.0000,0.0000,0.0000,nothing
511577,-0.1840,0.0631,-0.0020,0.3154,1.2390,-9.7783,1.8981,7.1106,172.6379,0.0000,0.0000,0.0000,0.0000,0.0000,nothing
511693,-0.1997,0.0851,-0.0078,0.2987,1.1959,-9.6645,1.8840,7.1046,172.6473,0.0000,0.0000,0.0000,0.0000,0.0000,nothing
511809,-0.1962,0.0583,-0.0585,0.2813,1.3713,-9.7328,1.8595,7.1961,172.5651,0.0000,0.0000,0.0000,0.0000,0.0000,nothing
511925,-0.2855,0.1036,0.0980,0.2466,1.2845,-9.6969,1.8181,7.2308,172.5418,0.0000,0.0000,0.0000,0.0000,0.0000,nothing
512041,-0.2720,0.0898,-0.0154,0.3256,1.1367,-9.7507,1.8263,7.1722,172.5966,0.0000,0.0000,0.0000,0.0000,0.0000,nothing
512157,-0.1888,0.0675,0.0277,0.3274,1.2229,-9.7274,1.8349,7.1711,172.5955,0.0000,0.0000,0.0000,0.0000,0.0000,nothing
512273,-0.1382,0.0483,-0.0406,0.3358,1.2247,-9.7495,1.8472,7.1695,172.5939,0.0000,0.0000,0.0000,0.0000,0.0000,nothing
512389,-0.2094,0.0676,-0.0293,0.3334,1.2480,-9.7172,1.8574,7.1840,172.5773,0.0000,0.0000,0.0000,0.0000,0.0000,nothing
512505,-0.2444,0.0738,-0.0371,0.3597,1.2396,-9.7280,1.8817,7.1913,172.5640,0.0000,0.0000,0.0000,0.0000,0.0000,nothing
512621,-0.2195,0.0635,0.0213,0.3131,1.2157,-9.7531,1.8760,7.1823,172.5742,0.0000,0.0000,0.0000,0.0000,0.0000,nothing
512737,-0.1988,0.0774,0.0356,0.3035,1.2007,-9.7082,1.8661,7.1689,172.5898,0.0000,0.0000,0.0000,0.0000,0.0000,nothing
512853,-0.2139,0.0665,-0.0330,0.3328,1.2085,-9.7250,1.8740,7.1599,172.5964,0.0000,0.0000,0.0000,0.0000,0.0000,nothing
512969,-0.2084,0.0633,0.0053,0.2807,1.2241,-9.7256,1.8506,7.1610,172.6013,0.0000,0.0000,0.0000,0.0000,0.0000,nothing
513085,-0.2420,0.0521,0.0057,0.3382,1.2229,-9.7148,1.8634,7.1619,172.5972,0.0000,0.0000,0.0000,0.0000,0.0000,nothing
513201,-0.2323,0.0570,-0.0074,0.2915,1.2043,-9.7495,1.8470,7.1496,172.6133,0.0000,0.0000,0.0000,0.0000,0.0000,nothing
513317,-0.1830,0.0652,0.0518,0.2963,1.1900,-9.7388,1.8353,7.1309,172.6343,0.0000,0.0000,0.0000,0.0000,0.0000,nothing
513433,-0.2102,0.0699,0.0481,0.3364,1.1822,-9.7196,1.8485,7.1109,172.6503,0.0000,0.0000,0.0000,0.0000,0.0000,nothing
513549,-0.2307,0.0574,0.0200,0.2724,1.2235,-9.7154,1.8230,7.1173,172.6506,0.0000,0.0000,0.0000,0.0000,0.0000,nothing
513665,-0.2285,0.0780,0.0513,0.3029,1.2301,-9.7627,1.8170,7.1234,172.6462,0.0000,0.0000,0.0000,0.0000,0.0000,nothing
513781,-0.2372,0.0404,0.0132,0.2867,1.2241,-9.7400,1.8026,7.1271,172.6462,0.0000,0.0000,0.0000,0.0000,0.0000,nothing
513897,-0.2187,0.0592,0.0165,0.3579,1.2223,-9.7412,1.8311,7.1291,172.6371,0.0000,0.0000,0.0000,0.0000,0.0000,nothing
514013,-0.1959,0.0638,0.0055,0.3310,1.2157,-9.7268,1.8414,7.1282,172.6354,0.0000,0.0000,0.0000,0.0000,0.0000,nothing
514129,-0.1939,0.0680,0.0217,0.2933,1.2163,-9.7340,1.8285,7.1273,172.6395,0.0000,0.0000,0.0000,0.0000,0.0000,nothing
514245,-0.2099,0.0897,-0.0574,0.3041,1.2528,-9.6879,1.8240,7.1510,172.6177,0.0000,0.0000,0.0000,0.0000,0.0000,nothing
514361,-0.1665,0.0828,0.0260,0.4046,1.1403,-9.7711,1.8773,7.1008,172.6528,0.0000,0.0000,0.0000,0.0000,0.0000,nothing
514477,-0.1990,0.0622,-0.0322,0.2981,1.1870,-9.7112,1.8641,7.0873,172.6693,0.0000,0.0000,0.0000,0.0000,0.0000,nothing
514593,-0.2078,0.0733,-0.0237,0.3244,1.1947,-9.7334,1.8672,7.0779,172.6775,0.0000,0.0000,0.0000,0.0000,0.0000,nothing
514709,-0.2114,0.0624,-0.0169,0.3166,1.1930,-9.7394,1.8653,7.0681,172.6875,0.0000,0.0000,0.0000,0.0000,0.0000,nothing
514825,-0.1845,0.0763,0.0204,0.3095,1.2426,-9.7382,1.8593,7.0881,172.6696,0.0000,0.0000,0.0000,0.0000,0.0000,nothing
514941,-0.2110,0.0834,0.0367,0.3334,1.2199,-9.7525,1.8677,7.0919,172.6638,0.0000,0.0000,0.0000,0.0000,0.0000,nothing
515057,-0.1909,0.0716,0.0255,0.2777,1.2522,-9.7364,1.8430,7.1153,172.6475,0.0000,0.0000,0.0000,0.0000,0.0000,nothing
515173,-0.2267,0.0657,0.0112,0.3639,1.1750,-9.7082,1.8717,7.0935,172.6613,0.0000,0.0000,0.0000,0.0000,0.0000,nothing
515289,-0.2079,0.0916,-0.0188,0.2831,1.2325,-9.7382,1.8498,7.1051,172.6556,0.0000,0.0000,0.0000,0.0000,0.0000,nothing
515405,-0.1707,0.0793,0.0132,0.3717,1.2241,-9.7382,1.8817,7.1106,172.6422,0.0000,0.0000,0.0000,0.0000,0.0000,nothing
515521,-0.2448,0.0656,0.0161,0.3137,1.2516,-9.7052,1.8771,7.1339,172.6208,0.0000,0.0000,0.0000,0.0000,0.0000,nothing
515637,-0.2435,0.0945,0.0198,0.3178,1.1858,-9.7166,1.8754,7.1160,172.6386,0.0000,0.0000,0.0000,0.0000,0.0000,nothing
515753,-0.2033,0.0523,-0.0142,0.3603,1.1953,-9.7364,1.8982,7.1038,172.6444,0.0000,0.0000,0.0000,0.0000,0.0000,nothing
515869,-0.1958,0.0766,0.0204,0.2777,1.2037,-9.7531,1.8703,7.0967,172.6585,0.0000,0.0000,0.0000,0.0000,0.0000,nothing
515985,-0.2094,0.0912,-0.0116,0.3705,1.2259,-9.6837,1.9005,7.1080,172.6398,0.0000,0.0000,0.0000,0.0000,0.0000,nothing
516101,-0.2075,0.0818,0.0181,0.3544,1.2337,-9.7142,1.9177,7.1204,172.6232,0.0000,0.0000,0.0000,0.0000,0.0000,nothing
516217,-0.2041,0.0590,0.0260,0.3017,1.2355,-9.7178,1.9023,7.1326,172.6155,0.0000,0.0000,0.0000,0.0000,0.0000,nothing
516333,-0.2270,0.0664,-0.0457,0.2712,1.2265,-9.7316,1.8704,7.1374,172.6192,0.0000,0.0000,0.0000,0.0000,0.0000,nothing
516449,-0.2189,0.0616,0.0409,0.3603,1.1780,-9.7735,1.8931,7.1103,172.6395,0.0000,0.0000,0.0000,0.0000,0.0000,nothing
516565,-0.2300,0.0937,-0.0180,0.3089,1.2480,-9.7064,1.8846,7.1316,172.6211,0.0000,0.0000,0.0000,0.0000,0.0000,nothing
516681,-0.2099,0.0856,0.0316,0.2328,1.2402,-9.7364,1.8320,7.1442,172.6223,0.0000,0.0000,0.0000,0.0000,0.0000,nothing
516797,-0.1952,0.0451,-0.0056,0.3166,1.1840,-9.7118,1.8341,7.1245,172.6408,0.0000,0.0000,0.0000,0.0000,0.0000,nothing
516913,-0.2131,0.0616,-0.0384,0.3729,1.2139,-9.7567,1.8680,7.1208,172.6358,0.0000,0.0000,0.0000,0.0000,0.0000,nothing
517029,-0.1949,0.0732,0.0115,0.3053,1.1918,-9.7005,1.8602,7.1088,172.6494,0.0000,0.0000,0.0000,0.0000,0.0000,nothing
517145,-0.1944,0.0776,-0.0158,0.3035,1.1852,-9.7418,1.8513,7.0912,172.6687,0.0000,0.0000,0.0000,0.0000,0.0000,nothing
517261,-0.2538,0.0462,0.0232,0.3125,1.1762,-9.7645,1.8481,7.0685,172.6915,0.0000,0.0000,0.0000,0.0000,0.0000,nothing
517377,-0.2507,0.0533,0.0236,0.2759,1.2480,-9.7424,1.8242,7.0914,172.6754,0.0000,0.0000,0.0000,0.0000,0.0000,nothing
517493,-0.2180,0.0604,0.0072,0.3041,1.1313,-9.7400,1.8194,7.0445,172.7221,0.0000,0.0000,0.0000,0.0000,0.0000,nothing
517609,-0.2027,0.0780,0.0072,0.3550,1.1600,-9.7370,1.8448,7.0190,172.7403,0.0000,0.0000,0.0000,0.0000,0.0000,nothing
517725,-0.2119,0.0841,-0.0130,0.2909,1.2265,-9.7286,1.8302,7.0353,172.7282,0.0000,0.0000,0.0000,0.0000,0.0000,nothing
517841,-0.2008,0.0536,-0.0085,0.3023,1.1983,-9.7190,1.8240,7.0343,172.7307,0.0000,0.0000,0.0000,0.0000,0.0000,nothing
517957,-0.1752,0.0517,0.0162,0.3226,1.2013,-9.7609,1.8295,7.0322,172.7314,0.0000,0.0000,0.0000,0.0000,0.0000,nothing
518073,-0.2026,0.0517,0.0304,0.3208,1.2474,-9.6981,1.8345,7.0614,172.7018,0.0000,0.0000,0.0000,0.0000,0.0000,nothing
518189,-0.2248,0.0338,-0.0120,0.3340,1.2432,-9.7106,1.8464,7.0844,172.6765,0.0000,0.0000,0.0000,0.0000,0.0000,nothing
518305,-0.2311,0.0941,0.0172,0.3460,1.2139,-9.7412,1.8637,7.0859,172.6707,0.0000,0.0000,0.0000,0.0000,0.0000,nothing
518421,-0.2098,0.0814,0.0179,0.2801,1.2307,-9.7118,1.8412,7.0992,172.6636,0.0000,0.0000,0.0000,0.0000,0.0000,nothing
518537,-0.1992,0.0755,0.0146,0.1640,1.2181,-9.7304,1.7529,7.1028,172.6820,0.0000,0.0000,0.0000,0.0000,0.0000,nothing
518653,-0.2159,0.0645,0.0226,0.4579,1.2073,-9.7310,1.8451,7.0990,172.6627,0.0000,0.0000,0.0000,0.0000,0.0000,nothing
518769,-0.1647,0.0862,0.0098,0.2963,1.2193,-9.7142,1.8339,7.1042,172.6605,0.0000,0.0000,0.0000,0.0000,0.0000,nothing
518885,-0.2034,0.0791,0.0312,0.4010,1.2791,-9.7196,1.8848,7.1429,172.6101,0.0000,0.0000,0.0000,0.0000,0.0000,nothing
519001,-0.2271,0.0768,-0.0215,0.3921,1.2163,-9.7597,1.9247,7.1385,172.6040,0.0000,0.0000,0.0000,0.0000,0.0000,nothing
519117,-0.2225,0.1016,0.0391,0.2328,1.2211,-9.7148,1.8686,7.1408,172.6163,0.0000,0.0000,0.0000,0.0000,0.0000,nothing
519233,-0.2104,0.0472,0.0010,0.3657,1.1953,-9.7651,1.8947,7.1241,172.6257,0.0000,0.0000,0.0000,0.0000,0.0000,nothing
519349,-0.2270,0.1058,0.0398,0.3310,1.2797,-9.7028,1.8989,7.1626,172.5874,0.0000,0.0000,0.0000,0.0000,0.0000,nothing
519465,-0.2483,0.1031,-0.0091,0.2257,1.1672,-9.7465,1.8407,7.1290,172.6348,0.0000,0.0000,0.0000,0.0000,0.0000,nothing
519581,-0.2018,0.0705,-0.0023,0.2825,1.1415,-9.7142,1.8221,7.0861,172.6810,0.0000,0.0000,0.0000,0.0000,0.0000,nothing
519697,-0.1755,0.0594,0.0232,0.3466,1.2019,-9.7753,1.8415,7.0780,172.6839,0.0000,0.0000,0.0000,0.0000,0.0000,nothing
519813,-0.1943,0.0613,-0.0085,0.3807,1.2067,-9.7364,1.8796,7.0762,172.6759,0.0000,0.0000,0.0000,0.0000,0.0000,nothing
519929,-0.2273,0.0731,-0.0264,0.2885,1.2121,-9.7052,1.8607,7.0802,172.6770,0.0000,0.0000,0.0000,0.0000,0.0000,nothing
520045,-0.2149,0.0729,0.0198,0.3268,1.1900,-9.7465,1.8652,7.0678,172.6877,0.0000,0.0000,0.0000,0.0000,0.0000,nothing
520161,-0.1451,0.0750,0.0124,0.3633,1.1953,-9.7537,1.8905,7.0593,172.6895,0.0000,0.0000,0.0000,0.0000,0.0000,nothing
520277,-0.2082,0.0766,0.0164,0.3172,1.2319,-9.7142,1.8870,7.0756,172.6746,0.0000,0.0000,0.0000,0.0000,0.0000,nothing
520393,-0.2313,0.0623,0.0005,0.2478,1.2217,-9.7322,1.8431,7.0834,172.6784,0.0000,0.0000,0.0000,0.0000,0.0000,nothing
520509,-0.1759,0.0586,0.0080,0.2945,1.1606,-9.7196,1.8311,7.0557,172.7082,0.0000,0.0000,0.0000,0.0000,0.0000,nothing
520625,-0.2022,0.0611,0.0110,0.2777,1.1744,-9.7196,1.8105,7.0388,172.7298,0.0000,0.0000,0.0000,0.0000,0.0000,nothing
520741,-0.2031,0.0487,0.0059,0.2987,1.2301,-9.7657,1.8033,7.0526,172.7183,0.0000,0.0000,0.0000,0.0000,0.0000,nothing
520857,-0.2044,0.0359,0.0056,0.3160,1.2414,-9.7082,1.8079,7.0756,172.6948,0.0000,0.0000,0.0000,0.0000,0.0000,nothing
520973,-0.2076,0.0603,0.0251,0.3544,1.2169,-9.7741,1.8332,7.0773,172.6868,0.0000,0.0000,0.0000,0.0000,0.0000,nothing
521089,-0.1918,0.0744,0.0449,0.3071,1.2301,-9.7459,1.8290,7.0886,172.6769,0.0000,0.0000,0.0000,0.0000,0.0000,nothing
521205,-0.2087,0.0912,0.0573,0.3047,1.1714,-9.7250,1.8242,7.0663,172.6998,0.0000,0.0000,0.0000,0.0000,0.0000,nothing
521321,-0.2108,0.0571,-0.0326,0.3005,1.1894,-9.6999,1.8179,7.0584,172.7090,0.0000,0.0000,0.0000,0.0000,0.0000,nothing
521437,-0.2263,0.0740,0.0093,0.3436,1.2313,-9.7046,1.8373,7.0751,172.6879,0.0000,0.0000,0.0000,0.0000,0.0000,nothing
521553,-0.1780,0.0566,-0.0157,0.2652,1.2265,-9.7286,1.8084,7.0859,172.6847,0.0000,0.0000,0.0000,0.0000,0.0000,nothing
521669,-0.1819,0.0793,-0.0443,0.3687,1.2402,-9.7573,1.8424,7.1012,172.6613,0.0000,0.0000,0.0000,0.0000,0.0000,nothing
521785,-0.1892,0.0683,0.0420,0.3316,1.2241,-9.7358,1.8517,7.1073,172.6530,0.0000,0.0000,0.0000,0.0000,0.0000,nothing
521901,-0.1979,0.0503,-0.0195,0.3101,1.2420,-9.7346,1.8475,7.1234,172.6386,0.0000,0.0000,0.0000,0.0000,0.0000,nothing
522017,-0.2188,0.0953,0.0259,0.3508,1.2504,-9.7477,1.8672,7.1416,172.6159,0.0000,0.0000,0.0000,0.0000,0.0000,nothing
522133,-0.2282,0.0793,0.0254,0.3567,1.2319,-9.7106,1.8892,7.1499,172.6022,0.0000,0.0000,0.0000,0.0000,0.0000,nothing
522249,-0.2204,0.0733,0.0192,0.3107,1.2097,-9.7603,1.8812,7.1411,172.6128,0.0000,0.0000,0.0000,0.0000,0.0000,nothing
522365,-0.2278,0.0806,0.0462,0.3232,1.1977,-9.6939,1.8826,7.1310,172.6222,0.0000,0.0000,0.0000,0.0000,0.0000,nothing
522481,-0.1951,0.0504,0.0093,0.2658,1.2642,-9.7525,1.8490,7.1563,172.6063,0.0000,0.0000,0.0000,0.0000,0.0000,nothing
522597,-0.2312,0.0648,-0.0363,0.2939,1.3707,-9.7160,1.8357,7.2433,172.5253,0.0000,0.0000,0.0000,0.0000,0.0000,nothing
522713,-0.2075,0.0717,-0.0256,0.3053,1.1965,-9.7316,1.8305,7.2196,172.5495,0.0000,0.0000,0.0000,0.0000,0.0000,nothing
522829,-0.2266,0.0529,0.0241,0.2849,1.2091,-9.7118,1.8142,7.2071,172.5658,0.0000,0.0000,0.0000,0.0000,0.0000,nothing
522945,-0.2007,0.0992,0.0818,0.5202,1.1989,-9.7465,1.9362,7.1867,172.5543,0.0000,0.0000,0.0000,0.0000,0.0000,nothing
523061,-0.1970,0.0837,-0.0534,0.4004,1.1936,-9.7765,1.9756,7.1635,172.5663,0.0000,0.0000,0.0000,0.0000,0.0000,nothing
523177,-0.3230,0.1085,0.0423,0.1407,1.3145,-9.7184,1.8603,7.2174,172.5442,0.0000,0.0000,0.0000,0.0000,0.0000,nothing
523293,-0.2338,0.0277,-0.0429,0.1377,1.0906,-9.6945,1.7558,7.1380,172.6470,0.0000,0.0000,0.0000,0.0000,0.0000,nothing
523409,-0.1831,0.0697,-0.0174,0.4926,1.0176,-9.7507,1.8679,7.0193,172.7340,0.0000,0.0000,0.0000,0.0000,0.0000,nothing
523525,-0.1320,0.0513,-0.0173,0.3466,1.2181,-9.7376,1.8834,7.0300,172.7197,0.0000,0.0000,0.0000,0.0000,0.0000,nothing
523641,-0.1620,0.0510,-0.0814,0.2197,1.2247,-9.7166,1.8237,7.0452,172.7203,0.0000,0.0000,0.0000,0.0000,0.0000,nothing
523757,-0.2207,0.0633,-0.0124,0.2215,1.2923,-9.7064,1.7709,7.0988,172.6815,0.0000,0.0000,0.0000,0.0000,0.0000,nothing
523873,-0.2200,0.0605,0.0500,0.5040,1.1828,-9.7585,1.8877,7.0791,172.6710,0.0000,0.0000,0.0000,0.0000,0.0000,nothing
523989,-0.2199,0.0971,-0.0172,0.3160,1.2235,-9.7639,1.8829,7.0851,172.6665,0.0000,0.0000,0.0000,0.0000,0.0000,nothing
524105,-0.2339,0.0871,-0.0196,0.2107,1.2486,-9.7160,1.8179,7.1087,172.6602,0.0000,0.0000,0.0000,0.0000,0.0000,nothing
524221,-0.2064,0.0875,0.0623,0.3334,1.1546,-9.7795,1.8301,7.0707,172.6940,0.0000,0.0000,0.0000,0.0000,0.0000,nothing
524337,-0.2075,0.0371,-0.0033,0.3747,1.1882,-9.7412,1.8658,7.0585,172.6966,0.0000,0.0000,0.0000,0.0000,0.0000,nothing
524453,-0.2089,0.0443,0.0791,0.2263,1.1912,-9.7322,1.8114,7.0503,172.7184,0.0000,0.0000,0.0000,0.0000,0.0000,nothing
524569,-0.2067,0.0649,-0.0226,0.2616,1.2163,-9.7190,1.7833,7.0584,172.7176,0.0000,0.0000,0.0000,0.0000,0.0000,nothing
524685,-0.2011,0.0720,-0.0896,0.3705,1.1678,-9.7400,1.8213,7.0358,172.7300,0.0000,0.0000,0.0000,0.0000,0.0000,nothing
524801,-0.2097,0.0743,0.0140,0.2897,1.1989,-9.7256,1.8085,7.0347,172.7343,0.0000,0.0000,0.0000,0.0000,0.0000,nothing
524917,-0.2166,0.0758,0.0093,0.3196,1.2019,-9.7046,1.8149,7.0368,172.7306,0.0000,0.0000,0.0000,0.0000,0.0000,nothing
525033,-0.2008,0.0638,-0.0048,0.2275,1.2043,-9.7585,1.7658,7.0365,172.7431,0.0000,0.0000,0.0000,0.0000,0.0000,nothing
525149,-0.2012,0.0669,0.0279,0.4154,1.2079,-9.7513,1.8314,7.0384,172.7249,0.0000,0.0000,0.0000,0.0000,0.0000,nothing
525265,-0.2267,0.0612,0.0170,0.3609,1.1816,-9.7687,1.8584,7.0238,172.7321,0.0000,0.0000,0.0000,0.0000,0.0000,nothing
525381,-0.2221,0.0773,-0.0108,0.2346,1.1953,-9.7298,1.8098,7.0216,172.7466,0.0000,0.0000,0.0000,0.0000,0.0000,nothing
525497,-0.2159,0.0849,0.0183,0.3017,1.2199,-9.7256,1.8051,7.0340,172.7358,0.0000,0.0000,0.0000,0.0000,0.0000,nothing
525613,-0.1973,0.0774,0.0488,0.4346,1.1738,-9.7334,1.8784,7.0176,172.7329,0.0000,0.0000,0.0000,0.0000,0.0000,nothing
525729,-0.2020,0.0688,-0.0083,0.3496,1.1666,-9.7352,1.8947,6.9988,172.7468,0.0000,0.0000,0.0000,0.0000,0.0000,nothing
525845,-0.1892,0.0588,-0.0363,0.1820,1.2361,-9.7166,1.8118,7.0238,172.7440,0.0000,0.0000,0.0000,0.0000,0.0000,nothing
525961,-0.2211,0.0774,0.0119,0.4842,1.1594,-9.7459,1.9132,6.9991,172.7416,0.0000,0.0000,0.0000,0.0000,0.0000,nothing
526077,-0.2121,0.0723,-0.0420,0.3843,1.0840,-9.7675,1.9459,6.9318,172.7976,0.0000,0.0000,0.0000,0.0000,0.0000,nothing
526193,-0.2187,0.0949,0.0161,0.2694,1.0882,-9.7298,1.9090,6.8767,172.8608,0.0000,0.0000,0.0000,0.0000,0.0000,nothing
526309,-0.1470,0.0431,-0.0369,0.2484,1.1086,-9.8387,1.8614,6.8313,172.9173,0.0000,0.0000,0.0000,0.0000,0.0000,nothing
526425,-0.1639,0.0500,0.0048,0.2550,1.2235,-9.6909,1.8250,6.8674,172.8920,0.0000,0.0000,0.0000,0.0000,0.0000,nothing
526541,-0.1699,0.0732,0.0119,0.4268,1.2085,-9.7184,1.8919,6.8888,172.8537,0.0000,0.0000,0.0000,0.0000,0.0000,nothing
526657,-0.1921,0.0738,-0.0174,0.3478,1.2378,-9.7382,1.9056,6.9239,172.8161,0.0000,0.0000,0.0000,0.0000,0.0000,nothing
526773,-0.1910,0.0668,-0.0258,0.3148,1.2067,-9.7005,1.8996,6.9402,172.8020,0.0000,0.0000,0.0000,0.0000,0.0000,nothing
526889,-0.2083,0.0496,0.0563,0.3208,1.2809,-9.7370,1.8967,6.9953,172.7496,0.0000,0.0000,0.0000,0.0000,0.0000,nothing
527005,-0.2593,0.0783,0.0275,0.3771,1.2169,-9.7735,1.9264,7.0050,172.7323,0.0000,0.0000,0.0000,0.0000,0.0000,nothing
527121,-0.1881,0.0667,-0.0479,0.3011,1.2378,-9.7214,1.9098,7.0298,172.7129,0.0000,0.0000,0.0000,0.0000,0.0000,nothing
527237,-0.1955,0.0952,0.0847,0.3023,1.1678,-9.7160,1.8958,7.0119,172.7338,0.0000,0.0000,0.0000,0.0000,0.0000,nothing
527353,-0.1475,0.0638,0.0020,0.3430,1.1558,-9.7525,1.9062,6.9862,172.7559,0.0000,0.0000,0.0000,0.0000,0.0000,nothing
527469,-0.2134,0.0953,-0.0170,0.3597,1.1864,-9.7382,1.9256,6.9817,172.7551,0.0000,0.0000,0.0000,0.0000,0.0000,nothing
527585,-0.1926,0.0720,-0.0049,0.3274,1.1930,-9.7555,1.9239,6.9803,172.7569,0.0000,0.0000,0.0000,0.0000,0.0000,nothing
527701,-0.1956,0.0449,0.0372,0.3220,1.1989,-9.7023,1.9202,6.9863,172.7521,0.0000,0.0000,0.0000,0.0000,0.0000,nothing
527817,-0.2170,0.0654,0.0027,0.3394,1.2073,-9.7567,1.9259,6.9927,172.7444,0.0000,0.0000,0.0000,0.0000,0.0000,nothing
527933,-0.2169,0.0395,0.0402,0.2933,1.1971,-9.7531,1.9042,6.9929,172.7500,0.0000,0.0000,0.0000,0.0000,0.0000,nothing
528049,-0.2180,0.0852,0.0425,0.4076,1.2205,-9.7370,1.9517,7.0075,172.7232,0.0000,0.0000,0.0000,0.0000,0.0000,nothing
528165,-0.1926,0.0999,0.0304,0.3298,1.2067,-9.7561,1.9487,7.0114,172.7202,0.0000,0.0000,0.0000,0.0000,0.0000,nothing
528281,-0.1911,0.0465,0.0413,0.3017,1.1828,-9.6885,1.9309,7.0060,172.7302,0.0000,0.0000,0.0000,0.0000,0.0000,nothing
528397,-0.2169,0.0804,-0.0161,0.3969,1.2133,-9.7615,1.9690,7.0134,172.7128,0.0000,0.0000,0.0000,0.0000,0.0000,nothing
528513,-0.1817,0.0847,-0.0466,0.2987,1.2289,-9.7040,1.9470,7.0334,172.6995,0.0000,0.0000,0.0000,0.0000,0.0000,nothing
528629,-0.2030,0.0515,-0.0417,0.3280,1.1654,-9.7406,1.9438,7.0119,172.7210,0.0000,0.0000,0.0000,0.0000,0.0000,nothing
528745,-0.2313,0.0818,0.0083,0.3184,1.1852,-9.7615,1.9349,7.0026,172.7324,0.0000,0.0000,0.0000,0.0000,0.0000,nothing
528861,-0.2292,0.0830,0.0181,0.3621,1.2091,-9.7352,1.9528,7.0099,172.7206,0.0000,0.0000,0.0000,0.0000,0.0000,nothing
