timestamp_ms,gyro_x,gyro_y,gyro_z,accel_x,accel_y,accel_z,roll,pitch,yaw,adc0,adc1,adc2,adc3,adc4,Label
241296,-0.2014,0.0593,-0.0438,0.2700,1.2043,-9.7340,1.7896,7.0495,172.7247,0.0000,0.0000,0.0000,0.0000,0.0000,nothing
241412,-0.2224,0.0620,0.0380,0.3178,1.2396,-9.7202,1.7964,7.0709,172.7022,0.0000,0.0000,0.0000,0.0000,0.0000,nothing
241528,-0.1877,0.0705,-0.0023,0.3143,1.2295,-9.7543,1.7999,7.0818,172.6907,0.0000,0.0000,0.0000,0.0000,0.0000,nothing
241644,-0.2099,0.0942,0.0503,0.3154,1.2271,-9.7657,1.8035,7.0895,172.6824,0.0000,0.0000,0.0000,0.0000,0.0000,nothing
241760,-0.2142,0.0637,-0.0041,0.3154,1.1618,-9.7082,1.8079,7.0627,172.7073,0.0000,0.0000,0.0000,0.0000,0.0000,nothing
241876,-0.2001,0.0705,-0.0693,0.2945,1.2271,-9.7052,1.7996,7.0767,172.6958,0.0000,0.0000,0.0000,0.0000,0.0000,nothing
241992,-0.1872,0.0954,0.0037,0.3316,1.1888,-9.7447,1.8131,7.0641,172.7046,0.0000,0.0000,0.0000,0.0000,0.0000,nothing
242108,-0.1954,0.0558,0.0196,0.3741,1.1942,-9.7328,1.8503,7.0567,172.7024,0.0000,0.0000,0.0000,0.0000,0.0000,nothing
242224,-0.2313,0.0822,0.0082,0.2592,1.2504,-9.6921,1.8173,7.0858,172.6826,0.0000,0.0000,0.0000,0.0000,0.0000,nothing
242340,-0.2224,0.0690,-0.0243,0.2610,1.1965,-9.7495,1.7877,7.0767,172.6988,0.0000,0.0000,0.0000,0.0000,0.0000,nothing
242456,-0.2093,0.0702,0.0245,0.3705,1.2061,-9.7256,1.8254,7.0754,172.6905,0.0000,0.0000,0.0000,0.0000,0.0000,nothing
242572,-0.2052,0.0755,0.0089,0.2598,1.1858,-9.7334,1.7947,7.0623,172.7110,0.0000,0.0000,0.0000,0.0000,0.0000,nothing
242688,-0.1834,0.0502,-0.0682,0.3400,1.1882,-9.7471,1.8135,7.0506,172.7176,0.0000,0.0000,0.0000,0.0000,0.0000,nothing
242804,-0.2189,0.0541,0.0194,0.3292,1.2229,-9.7130,1.8248,7.0627,172.7030,0.0000,0.0000,0.0000,0.0000,0.0000,nothing
242920,-0.1966,0.0682,-0.0106,0.2706,1.2115,-9.7388,1.8002,7.0653,172.7067,0.0000,0.0000,0.0000,0.0000,0.0000,nothing
243036,-0.2262,0.0698,0.0443,0.2921,1.2097,-9.6807,1.7917,7.0707,172.7036,0.0000,0.0000,0.0000,0.0000,0.0000,nothing
243152,-0.2049,0.0684,-0.0262,0.3466,1.2001,-9.7160,1.8153,7.0673,172.7009,0.0000,0.0000,0.0000,0.0000,0.0000,nothing
243268,-0.2278,0.0747,0.0361,0.3202,1.1989,-9.7244,1.8209,7.0631,172.7036,0.0000,0.0000,0.0000,0.0000,0.0000,nothing
243384,-0.2161,0.0582,0.0507,0.2735,1.2301,-9.7334,1.7985,7.0768,172.6960,0.0000,0.0000,0.0000,0.0000,0.0000,nothing
243500,-0.2230,0.0577,0.0080,0.3113,1.2462,-9.7298,1.8004,7.0986,172.6743,0.0000,0.0000,0.0000,0.0000,0.0000,nothing
243616,-0.2237,0.0902,0.0179,0.3023,1.2600,-9.7280,1.7969,7.1265,172.6482,0.0000,0.0000,0.0000,0.0000,0.0000,nothing
243732,-0.2522,0.1017,-0.0072,0.3556,1.2594,-9.7178,1.8250,7.1517,172.6167,0.0000,0.0000,0.0000,0.0000,0.0000,nothing
243848,-0.2372,0.0808,-0.0241,0.3178,1.2115,-9.7412,1.8280,7.1451,172.6224,0.0000,0.0000,0.0000,0.0000,0.0000,nothing
243964,-0.2159,0.0620,0.0582,0.3286,1.1654,-9.7400,1.8370,7.1125,172.6517,0.0000,0.0000,0.0000,0.0000,0.0000,nothing
244080,-0.2301,0.0423,0.0056,0.2921,1.2079,-9.7346,1.8239,7.1083,172.6591,0.0000,0.0000,0.0000,0.0000,0.0000,nothing
244196,-0.2098,0.0832,-0.0639,0.2676,1.2444,-9.7172,1.7980,7.1270,172.6474,0.0000,0.0000,0.0000,0.0000,0.0000,nothing
244312,-0.2155,0.0631,0.0496,0.3029,1.1786,-9.7202,1.7954,7.1053,172.6691,0.0000,0.0000,0.0000,0.0000,0.0000,nothing
244428,-0.2266,0.0684,0.0219,0.2879,1.2019,-9.7250,1.7841,7.0990,172.6780,0.0000,0.0000,0.0000,0.0000,0.0000,nothing
244544,-0.2059,0.0705,0.1036,0.3202,1.1720,-9.7076,1.7933,7.0772,172.6969,0.0000,0.0000,0.0000,0.0000,0.0000,nothing
244660,-0.2054,0.0823,0.0064,0.3083,1.2259,-9.7537,1.7936,7.0855,172.6888,0.0000,0.0000,0.0000,0.0000,0.0000,nothing
244776,-0.2105,0.1033,-0.0100,0.3562,1.1971,-9.7388,1.8221,7.0773,172.6896,0.0000,0.0000,0.0000,0.0000,0.0000,nothing
244892,-0.2039,0.0633,-0.0237,0.3693,1.2193,-9.7262,1.8557,7.0836,172.6749,0.0000,0.0000,0.0000,0.0000,0.0000,nothing
245008,-0.2682,0.0962,0.0161,0.2789,1.2127,-9.7741,1.8322,7.0822,172.6822,0.0000,0.0000,0.0000,0.0000,0.0000,nothing
245124,-0.4964,0.1598,0.0391,0.1724,1.9914,-9.6849,1.7488,7.5387,172.2589,0.0000,0.0000,0.0000,0.0000,0.0000,หนึ่ง
245240,0.0593,-0.0686,-0.0454,0.4250,0.4561,-9.6807,1.8248,7.0600,172.7057,0.0000,0.0000,0.0000,0.0000,0.0000,หนึ่ง
245356,-0.0781,0.0928,-0.0086,0.1981,1.0158,-9.6202,1.7604,6.9578,172.8208,0.0000,0.0000,0.0000,0.0000,0.0000,หนึ่ง
245472,-0.0991,0.0510,-0.0522,0.4465,1.2821,-9.7256,1.8452,7.0125,172.7464,0.0000,0.0000,0.0000,0.0000,0.0000,หนึ่ง
245588,-0.1761,0.0593,0.0010,0.2562,1.1702,-9.7400,1.8102,6.9961,172.7712,0.0000,0.0000,0.0000,0.0000,0.0000,หนึ่ง
245704,-0.1650,0.0668,-0.0309,0.3627,1.2366,-9.7489,1.8407,7.0190,172.7413,0.0000,0.0000,0.0000,0.0000,0.0000,หนึ่ง
245820,-0.1528,0.0709,0.0573,0.2789,1.2702,-9.7376,1.8193,7.0601,172.7070,0.0000,0.0000,0.0000,0.0000,0.0000,หนึ่ง
245936,-0.2026,0.0723,-0.0886,0.3232,1.2247,-9.7382,1.8260,7.0705,172.6952,0.0000,0.0000,0.0000,0.0000,0.0000,หนึ่ง
246052,-0.2097,0.0661,-0.0609,0.3131,1.2366,-9.7076,1.8266,7.0890,172.6771,0.0000,0.0000,0.0000,0.0000,0.0000,หนึ่ง
246168,-0.2187,0.0567,0.0218,0.2885,1.1804,-9.7196,1.8128,7.0723,172.6968,0.0000,0.0000,0.0000,0.0000,0.0000,หนึ่ง
246284,-0.2173,0.0886,0.0716,0.3071,1.1959,-9.7364,1.8108,7.0650,172.7044,0.0000,0.0000,0.0000,0.0000,0.0000,หนึ่ง
246400,-0.2135,0.0598,-0.0567,0.3113,1.1959,-9.7070,1.8120,7.0605,172.7084,0.0000,0.0000,0.0000,0.0000,0.0000,หนึ่ง
246516,-0.1896,0.0664,0.0718,0.3621,1.2139,-9.7256,1.8424,7.0654,172.6960,0.0000,0.0000,0.0000,0.0000,0.0000,หนึ่ง
246632,-0.2044,0.0770,-0.0211,0.3448,1.0774,-9.7442,1.8596,6.9894,172.7651,0.0000,0.0000,0.0000,0.0000,0.0000,หนึ่ง
246748,-0.2029,0.0849,-0.0795,0.3101,1.2115,-9.7346,1.8547,6.9995,172.7565,0.0000,0.0000,0.0000,0.0000,0.0000,หนึ่ง
246864,-0.2140,0.0761,-0.0288,0.3418,1.2235,-9.6849,1.8697,7.0191,172.7337,0.0000,0.0000,0.0000,0.0000,0.0000,หนึ่ง
246980,-0.1962,0.0536,0.0057,0.3166,1.2396,-9.7232,1.8677,7.0434,172.7108,0.0000,0.0000,0.0000,0.0000,0.0000,หนึ่ง
247096,-0.2138,0.0594,0.0303,0.2879,1.0822,-9.7178,1.8497,6.9743,172.7822,0.0000,0.0000,0.0000,0.0000,0.0000,หนึ่ง
247212,-0.2078,0.1067,0.0290,0.3077,1.2103,-9.7453,1.8441,6.9845,172.7738,0.0000,0.0000,0.0000,0.0000,0.0000,หนึ่ง
247328,-0.2384,0.0849,0.0059,0.3274,1.2217,-9.7304,1.8510,7.0013,172.7558,0.0000,0.0000,0.0000,0.0000,0.0000,หนึ่ง
247444,-0.2308,0.0615,0.0191,0.3274,1.2474,-9.7465,1.8567,7.0302,172.7264,0.0000,0.0000,0.0000,0.0000,0.0000,หนึ่ง
247560,-0.2181,0.0924,-0.0115,0.2885,1.2378,-9.6993,1.8401,7.0541,172.7075,0.0000,0.0000,0.0000,0.0000,0.0000,หนึ่ง
247676,-0.2221,0.0438,0.0097,0.3131,1.2025,-9.7573,1.8385,7.0509,172.7110,0.0000,0.0000,0.0000,0.0000,0.0000,หนึ่ง
247792,-0.2308,0.0720,0.0583,0.3328,1.1906,-9.7442,1.8488,7.0420,172.7170,0.0000,0.0000,0.0000,0.0000,0.0000,หนึ่ง
247908,-0.2170,0.0673,0.0180,0.2951,1.1953,-9.7340,1.8363,7.0376,172.7244,0.0000,0.0000,0.0000,0.0000,0.0000,หนึ่ง
248024,-0.2268,0.0609,0.0354,0.3119,1.1918,-9.7657,1.8342,7.0292,172.7331,0.0000,0.0000,0.0000,0.0000,0.0000,หนึ่ง
248140,-0.2095,0.0626,-0.0040,0.3418,1.2253,-9.7040,1.8509,7.0455,172.7131,0.0000,0.0000,0.0000,0.0000,0.0000,หนึ่ง
248256,-0.1962,0.0919,0.0560,0.2753,1.2115,-9.7364,1.8265,7.0499,172.7150,0.0000,0.0000,0.0000,0.0000,0.0000,หนึ่ง
248372,-0.1810,0.0528,0.0184,0.3256,1.2097,-9.7058,1.8345,7.0550,172.7080,0.0000,0.0000,0.0000,0.0000,0.0000,หนึ่ง
248488,-0.2094,0.0487,-0.0248,0.3017,1.2085,-9.7459,1.8270,7.0560,172.7089,0.0000,0.0000,0.0000,0.0000,0.0000,หนึ่ง
248604,-0.2116,0.0856,0.0378,0.3166,1.2157,-9.7310,1.8293,7.0622,172.7024,0.0000,0.0000,0.0000,0.0000,0.0000,หนึ่ง
248720,-0.2394,0.0747,0.0196,0.2436,1.2271,-9.7382,1.7885,7.0739,172.7012,0.0000,0.0000,0.0000,0.0000,0.0000,หนึ่ง
248836,-0.2218,0.0721,0.0008,0.3244,1.2115,-9.7142,1.7994,7.0770,172.6955,0.0000,0.0000,0.0000,0.0000,0.0000,หนึ่ง
248952,-0.1804,0.1010,-0.0334,0.2885,1.2007,-9.7220,1.7882,7.0731,172.7021,0.0000,0.0000,0.0000,0.0000,0.0000,หนึ่ง
249068,-0.2333,0.0548,-0.0414,0.4717,1.1684,-9.7956,1.8837,7.0451,172.7049,0.0000,0.0000,0.0000,0.0000,0.0000,หนึ่ง
249184,-0.2169,0.0657,0.0611,0.1335,1.2361,-9.7017,1.7739,7.0667,172.7119,0.0000,0.0000,0.0000,0.0000,0.0000,หนึ่ง
249300,-0.2124,0.0646,0.0143,0.4130,1.1397,-9.7872,1.8368,7.0235,172.7380,0.0000,0.0000,0.0000,0.0000,0.0000,หนึ่ง
249416,-0.2515,0.0477,-0.0425,0.2849,1.1409,-9.7735,1.8189,6.9865,172.7783,0.0000,0.0000,0.0000,0.0000,0.0000,หนึ่ง
249532,-0.2305,0.1012,-0.0057,0.1903,1.1858,-9.7663,1.7478,6.9801,172.8023,0.0000,0.0000,0.0000,0.0000,0.0000,หนึ่ง
249648,-0.0523,0.0598,-0.0005,0.3346,0.4693,-9.4892,1.7743,6.5773,173.1856,0.0000,0.0000,0.0000,0.0000,0.0000,break_time
249764,-0.2972,0.0120,0.0211,0.6225,0.7620,-9.9656,1.9571,6.3516,173.3513,0.0000,0.0000,0.0000,0.0000,0.0000,break_time
249880,-0.3193,0.0586,0.0353,0.2502,1.3420,-9.8046,1.9059,6.4968,173.2271,0.0000,0.0000,0.0000,0.0000,0.0000,break_time
249996,-0.2315,0.0579,0.0357,0.1742,1.2073,-9.7017,1.8177,6.5562,173.1943,0.0000,0.0000,0.0000,0.0000,0.0000,break_time
250112,-0.2423,0.0836,-0.0142,0.3711,1.2019,-9.7352,1.8526,6.6040,173.1389,0.0000,0.0000,0.0000,0.0000,0.0000,break_time
250228,-0.2219,0.0762,0.0282,0.2861,1.2163,-9.7262,1.8346,6.6560,173.0936,0.0000,0.0000,0.0000,0.0000,0.0000,break_time
250344,-0.2082,0.0435,0.0011,0.2610,1.1445,-9.7094,1.8041,6.6624,173.0955,0.0000,0.0000,0.0000,0.0000,0.0000,break_time
250460,-0.1677,0.0491,0.0299,0.3478,1.1630,-9.7364,1.8268,6.6770,173.0755,0.0000,0.0000,0.0000,0.0000,0.0000,break_time
250576,-0.1744,0.0774,-0.0052,0.2981,1.2097,-9.7052,1.8187,6.7193,173.0367,0.0000,0.0000,0.0000,0.0000,0.0000,break_time
250692,-0.1872,0.0680,-0.0515,0.3083,1.1942,-9.7298,1.8170,6.7467,173.0107,0.0000,0.0000,0.0000,0.0000,0.0000,break_time
250808,-0.1639,0.0571,0.0217,0.4046,1.2229,-9.7286,1.8716,6.7880,172.9564,0.0000,0.0000,0.0000,0.0000,0.0000,break_time
250924,-0.1842,0.0905,0.0232,0.3041,1.2253,-9.6945,1.8627,6.8290,172.9191,0.0000,0.0000,0.0000,0.0000,0.0000,break_time
251040,-0.2228,0.0686,0.0176,0.3005,1.2175,-9.6987,1.8526,6.8612,172.8907,0.0000,0.0000,0.0000,0.0000,0.0000,break_time
251156,-0.2529,0.0574,0.0130,0.3460,1.2055,-9.7274,1.8695,6.8811,172.8671,0.0000,0.0000,0.0000,0.0000,0.0000,break_time
251272,-0.2179,0.0840,0.0267,0.3651,1.1953,-9.7501,1.8955,6.8915,172.8501,0.0000,0.0000,0.0000,0.0000,0.0000,break_time
251388,-0.2168,0.0755,0.0194,0.3101,1.2025,-9.7094,1.8874,6.9080,172.8363,0.0000,0.0000,0.0000,0.0000,0.0000,break_time
251504,-0.2022,0.0706,0.0136,0.2819,1.1828,-9.7202,1.8636,6.9107,172.8401,0.0000,0.0000,0.0000,0.0000,0.0000,break_time
251620,-0.1969,0.0687,-0.0106,0.3819,1.1804,-9.7011,1.9010,6.9129,172.8281,0.0000,0.0000,0.0000,0.0000,0.0000,break_time
251736,-0.1842,0.0829,0.0029,0.2879,1.1792,-9.7214,1.8793,6.9129,172.8338,0.0000,0.0000,0.0000,0.0000,0.0000,break_time
251852,-0.1951,0.0649,0.0155,0.3083,1.1696,-9.7238,1.8716,6.9071,172.8414,0.0000,0.0000,0.0000,0.0000,0.0000,break_time
251968,-0.1821,0.0665,-0.0142,0.3310,1.2372,-9.7561,1.8773,6.9389,172.8092,0.0000,0.0000,0.0000,0.0000,0.0000,break_time
252084,-0.1778,0.0534,-0.0181,0.3550,1.1672,-9.7112,1.8974,6.9299,172.8126,0.0000,0.0000,0.0000,0.0000,0.0000,break_time
252200,-0.1521,0.0713,-0.0038,0.2861,1.2031,-9.6885,1.8756,6.9445,172.8043,0.0000,0.0000,0.0000,0.0000,0.0000,break_time
252316,-0.1939,0.0658,-0.0056,0.3208,1.2390,-9.7202,1.8755,6.9761,172.7738,0.0000,0.0000,0.0000,0.0000,0.0000,break_time
252432,-0.1949,0.0753,0.0285,0.3226,1.2061,-9.7382,1.8763,6.9841,172.7658,0.0000,0.0000,0.0000,0.0000,0.0000,break_time
252548,-0.1805,0.0695,0.0316,0.2999,1.1762,-9.7382,1.8638,6.9741,172.7788,0.0000,0.0000,0.0000,0.0000,0.0000,break_time
252664,-0.1568,0.0616,-0.0534,0.3172,1.1834,-9.7046,1.8633,6.9715,172.7814,0.0000,0.0000,0.0000,0.0000,0.0000,nothing
252780,-0.2179,0.0549,0.0371,0.2891,1.1882,-9.7436,1.8456,6.9693,172.7881,0.0000,0.0000,0.0000,0.0000,0.0000,nothing
252896,-0.1985,0.0573,-0.0266,0.3214,1.2145,-9.7064,1.8492,6.9852,172.7718,0.0000,0.0000,0.0000,0.0000,0.0000,nothing
253012,-0.2042,0.0742,0.0496,0.2574,1.2696,-9.7304,1.8145,7.0299,172.7375,0.0000,0.0000,0.0000,0.0000,0.0000,nothing
253128,-0.2187,0.0972,0.0132,0.3645,1.1457,-9.7316,1.8461,6.9978,172.7604,0.0000,0.0000,0.0000,0.0000,0.0000,nothing
253244,-0.2110,0.0784,0.0117,0.1652,1.1786,-9.7316,1.7581,6.9886,172.7915,0.0000,0.0000,0.0000,0.0000,0.0000,nothing
253360,-0.1806,0.0473,-0.0357,0.2993,1.1708,-9.7052,1.7576,6.9773,172.8026,0.0000,0.0000,0.0000,0.0000,0.0000,nothing
253476,-0.2106,0.0398,0.0014,0.3526,1.2205,-9.7328,1.7877,6.9939,172.7790,0.0000,0.0000,0.0000,0.0000,0.0000,nothing
253592,-0.1530,0.0379,0.0198,0.3328,1.1612,-9.7023,1.8040,6.9766,172.7916,0.0000,0.0000,0.0000,0.0000,0.0000,nothing
253708,-0.1556,0.0813,0.0399,0.3442,1.2169,-9.7298,1.8247,6.9915,172.7721,0.0000,0.0000,0.0000,0.0000,0.0000,nothing
253824,-0.1539,0.0559,-0.0218,0.3196,1.2516,-9.6921,1.8295,7.0277,172.7358,0.0000,0.0000,0.0000,0.0000,0.0000,nothing
253940,-0.2211,0.0838,-0.0165,0.3376,1.2851,-9.6885,1.8444,7.0800,172.6814,0.0000,0.0000,0.0000,0.0000,0.0000,nothing
254056,-0.2320,0.0792,0.0139,0.3071,1.2474,-9.7483,1.8389,7.1009,172.6625,0.0000,0.0000,0.0000,0.0000,0.0000,nothing
254172,-0.2123,0.0753,0.0544,0.3101,1.1822,-9.7142,1.8365,7.0843,172.6792,0.0000,0.0000,0.0000,0.0000,0.0000,nothing
254288,-0.1945,0.0596,-0.0494,0.2999,1.2420,-9.7483,1.8276,7.1017,172.6646,0.0000,0.0000,0.0000,0.0000,0.0000,nothing
254404,-0.2042,0.0615,-0.0063,0.3196,1.1313,-9.7214,1.8319,7.0550,172.7087,0.0000,0.0000,0.0000,0.0000,0.0000,nothing
254520,-0.1755,0.0525,0.0219,0.3741,1.2019,-9.7358,1.8672,7.0528,172.7018,0.0000,0.0000,0.0000,0.0000,0.0000,nothing
254636,-0.1978,0.0762,-0.0301,0.3484,1.2031,-9.7244,1.8841,7.0523,172.6979,0.0000,0.0000,0.0000,0.0000,0.0000,nothing
254752,0.1497,0.1291,0.0229,0.2969,1.0834,-9.2838,1.8779,7.0141,172.7365,0.0000,0.0000,0.0000,0.0000,0.0000,error_redo
254868,-0.1365,0.0886,-0.0286,0.5938,1.3402,-9.7196,2.0374,7.0971,172.6134,0.0000,0.0000,0.0000,0.0000,0.0000,error_redo
254984,-0.1725,0.0574,0.0011,0.5357,1.2217,-9.7795,2.1459,7.0985,172.5810,0.0000,0.0000,0.0000,0.0000,0.0000,error_redo
255100,-0.2829,0.1286,-0.0095,0.3280,1.2863,-9.7268,2.1227,7.1418,172.5463,0.0000,0.0000,0.0000,0.0000,0.0000,error_redo
255216,-0.2348,0.0673,0.0731,0.3562,1.2678,-9.6849,2.1192,7.1728,172.5175,0.0000,0.0000,0.0000,0.0000,0.0000,error_redo
255332,-0.2635,0.0699,0.0215,0.3442,1.2366,-9.7286,2.1083,7.1796,172.5142,0.0000,0.0000,0.0000,0.0000,0.0000,error_redo
255448,-0.2164,0.0887,0.0405,0.2993,1.1606,-9.7442,2.0720,7.1404,172.5620,0.0000,0.0000,0.0000,0.0000,0.0000,error_redo
255564,-0.2138,0.0694,-0.0061,0.3484,1.1774,-9.7878,2.0672,7.1117,172.5910,0.0000,0.0000,0.0000,0.0000,0.0000,error_redo
255680,-0.2063,0.0791,0.0050,0.3460,1.1965,-9.7011,2.0632,7.1032,172.6003,0.0000,0.0000,0.0000,0.0000,0.0000,error_redo
255796,-0.2109,0.0668,-0.0506,0.2843,1.2121,-9.7238,2.0230,7.1032,172.6115,0.0000,0.0000,0.0000,0.0000,0.0000,error_redo
255912,-0.2484,0.0729,0.0038,0.2993,1.1307,-9.7585,1.9951,7.0533,172.6672,0.0000,0.0000,0.0000,0.0000,0.0000,error_redo
256028,-0.2020,0.0720,-0.0225,0.3190,1.1822,-9.7471,1.9817,7.0391,172.6845,0.0000,0.0000,0.0000,0.0000,0.0000,error_redo
256144,-0.1993,0.0774,0.0507,0.2795,1.1780,-9.7813,1.9459,7.0216,172.7112,0.0000,0.0000,0.0000,0.0000,0.0000,error_redo
256260,-0.2014,0.0438,0.0784,0.3502,1.1882,-9.7280,1.9559,7.0153,172.7145,0.0000,0.0000,0.0000,0.0000,0.0000,error_redo
256376,-0.2204,0.0802,0.0279,0.3310,1.2175,-9.7621,1.9530,7.0243,172.7066,0.0000,0.0000,0.0000,0.0000,0.0000,error_redo
256492,-0.2155,0.0683,0.0266,0.2879,1.1894,-9.7412,1.9258,7.0177,172.7203,0.0000,0.0000,0.0000,0.0000,0.0000,error_redo
256608,-0.2158,0.0793,0.0110,0.2783,1.2049,-9.6909,1.8965,7.0244,172.7216,0.0000,0.0000,0.0000,0.0000,0.0000,error_redo
256724,-0.1579,0.0603,0.0706,0.3400,1.1481,-9.7549,1.9052,6.9927,172.7499,0.0000,0.0000,0.0000,0.0000,0.0000,error_redo
256840,-0.1979,0.0870,-0.0091,0.3166,1.2259,-9.7609,1.8990,7.0089,172.7359,0.0000,0.0000,0.0000,0.0000,0.0000,error_redo
256956,-0.1986,0.0641,-0.0199,0.3059,1.2187,-9.7005,1.8883,7.0237,172.7244,0.0000,0.0000,0.0000,0.0000,0.0000,error_redo
257072,-0.2222,0.0769,-0.0224,0.3322,1.2618,-9.7519,1.8930,7.0583,172.6898,0.0000,0.0000,0.0000,0.0000,0.0000,error_redo
257188,-0.2207,0.0867,0.0078,0.4675,1.1834,-9.7202,1.9770,7.0459,172.6793,0.0000,0.0000,0.0000,0.0000,0.0000,error_redo
257304,-0.1967,0.0552,-0.0451,0.1245,1.2803,-9.7358,1.8518,7.0906,172.6692,0.0000,0.0000,0.0000,0.0000,0.0000,error_redo
257420,-0.1943,0.0862,0.1279,0.4663,1.1977,-9.7412,1.9387,7.0818,172.6550,0.0000,0.0000,0.0000,0.0000,0.0000,error_redo
257536,-0.2146,0.0638,-0.0479,0.4651,1.1959,-9.7340,2.0164,7.0733,172.6421,0.0000,0.0000,0.0000,0.0000,0.0000,error_redo
257652,-0.2102,0.0491,0.0691,0.1059,1.2486,-9.7094,1.8771,7.0989,172.6547,0.0000,0.0000,0.0000,0.0000,0.0000,error_redo
257768,-0.2135,0.0579,-0.0887,0.3478,1.1983,-9.7220,1.8927,7.0912,172.6580,0.0000,0.0000,0.0000,0.0000,0.0000,error_redo
257884,-0.2074,0.0817,0.0196,0.4525,1.2247,-9.7699,1.9669,7.0959,172.6338,0.0000,0.0000,0.0000,0.0000,0.0000,error_redo
258000,-0.2024,0.0673,0.0031,0.2209,1.2235,-9.7088,1.8997,7.1044,172.6435,0.0000,0.0000,0.0000,0.0000,0.0000,error_redo
258116,-0.2472,0.0717,0.0738,0.2047,1.1594,-9.7681,1.8287,7.0707,172.6943,0.0000,0.0000,0.0000,0.0000,0.0000,error_redo
258232,-0.2515,0.0693,-0.0759,0.4489,1.1660,-9.7627,1.9075,7.0440,172.6998,0.0000,0.0000,0.0000,0.0000,0.0000,error_redo
258348,-0.1408,0.0605,-0.0829,0.2239,1.0128,-9.7962,1.8468,6.9294,172.8264,0.0000,0.0000,0.0000,0.0000,0.0000,error_redo
258464,-0.1078,0.0245,-0.0023,0.2741,1.0673,-9.7214,1.8228,6.8629,172.8969,0.0000,0.0000,0.0000,0.0000,0.0000,error_redo
258580,-0.1554,0.0419,0.0181,0.3490,1.1959,-9.7250,1.8445,6.8773,172.8774,0.0000,0.0000,0.0000,0.0000,0.0000,error_redo
258696,-0.1596,0.0619,0.0350,0.3370,1.2504,-9.7262,1.8568,6.9217,172.8312,0.0000,0.0000,0.0000,0.0000,0.0000,error_redo
258812,-0.2146,0.0851,0.0424,0.2550,1.1660,-9.7124,1.8206,6.9139,172.8482,0.0000,0.0000,0.0000,0.0000,0.0000,error_redo
258928,-0.1958,0.0532,0.0134,0.3759,1.2139,-9.7406,1.8579,6.9324,172.8206,0.0000,0.0000,0.0000,0.0000,0.0000,error_redo
259044,-0.2050,0.0817,0.0563,0.2544,1.2031,-9.6903,1.8215,6.9466,172.8163,0.0000,0.0000,0.0000,0.0000,0.0000,error_redo
259160,-0.1847,0.0566,-0.0233,0.3113,1.2528,-9.7208,1.8212,6.9859,172.7783,0.0000,0.0000,0.0000,0.0000,0.0000,error_redo
259276,-0.3510,0.0853,0.0608,0.2682,1.2797,-9.7160,1.7959,7.0374,172.7348,0.0000,0.0000,0.0000,0.0000,0.0000,error_redo
259392,-0.2608,0.0717,0.0971,0.2676,1.0786,-9.7436,1.7726,6.9651,172.8107,0.0000,0.0000,0.0000,0.0000,0.0000,error_redo
259508,-0.1868,0.0759,-0.0215,0.2454,1.0990,-9.7645,1.7384,6.9105,172.8721,0.0000,0.0000,0.0000,0.0000,0.0000,error_redo
259624,-0.1538,0.0304,0.0055,0.3202,1.1253,-9.6993,1.7523,6.8810,172.8973,0.0000,0.0000,0.0000,0.0000,0.0000,error_redo
259740,-0.1526,0.0627,-0.0275,0.3089,1.1517,-9.7693,1.7570,6.8648,172.9118,0.0000,0.0000,0.0000,0.0000,0.0000,error_redo
259856,-0.1479,0.0323,0.0494,0.3250,1.1696,-9.6807,1.7721,6.8669,172.9061,0.0000,0.0000,0.0000,0.0000,0.0000,error_redo
259972,-0.2196,0.0766,0.0649,0.2897,1.2277,-9.7603,1.7635,6.8969,172.8791,0.0000,0.0000,0.0000,0.0000,0.0000,error_redo
260088,-0.2139,0.0738,-0.0109,0.3184,1.1756,-9.7160,1.7735,6.8967,172.8767,0.0000,0.0000,0.0000,0.0000,0.0000,error_redo
260204,-0.2074,0.0518,0.0547,0.2484,1.1744,-9.7579,1.7409,6.8931,172.8884,0.0000,0.0000,0.0000,0.0000,0.0000,error_redo
260320,-0.2225,0.0260,0.0029,0.3322,1.1804,-9.7178,1.7611,6.8959,172.8806,0.0000,0.0000,0.0000,0.0000,0.0000,error_redo
260436,-0.2766,0.0753,0.0102,0.2281,1.2073,-9.7519,1.7179,6.9120,172.8757,0.0000,0.0000,0.0000,0.0000,0.0000,error_redo
260552,-0.1727,0.0703,-0.0131,0.2747,1.1618,-9.7382,1.7066,6.9009,172.8893,0.0000,0.0000,0.0000,0.0000,0.0000,error_redo
260668,-0.1847,0.0477,0.0230,0.3352,1.1307,-9.7621,1.7313,6.8710,172.9122,0.0000,0.0000,0.0000,0.0000,0.0000,error_redo
260784,-0.1551,0.0417,-0.0138,0.2981,1.1642,-9.7028,1.7329,6.8678,172.9149,0.0000,0.0000,0.0000,0.0000,0.0000,error_redo
260900,-0.1940,0.0581,0.0102,0.3017,1.1870,-9.7609,1.7353,6.8741,172.9082,0.0000,0.0000,0.0000,0.0000,0.0000,error_redo
261016,-0.2232,0.0533,0.0473,0.2813,1.2432,-9.7100,1.7264,6.9159,172.8698,0.0000,0.0000,0.0000,0.0000,0.0000,error_redo
261132,-0.2397,0.0883,0.0346,0.3143,1.2019,-9.7495,1.7370,6.9268,172.8567,0.0000,0.0000,0.0000,0.0000,0.0000,error_redo
261248,-0.1888,0.0710,-0.0124,0.2712,1.2235,-9.7310,1.7217,6.9504,172.8374,0.0000,0.0000,0.0000,0.0000,0.0000,error_redo
261364,-0.1760,0.0785,0.0256,0.3711,1.2037,-9.7513,1.7659,6.9586,172.8186,0.0000,0.0000,0.0000,0.0000,0.0000,error_redo
261480,-0.1963,0.0768,-0.1108,0.3202,1.1870,-9.7687,1.7758,6.9552,172.8195,0.0000,0.0000,0.0000,0.0000,0.0000,error_redo
261596,-0.2380,0.0843,0.0472,0.3424,1.2235,-9.7489,1.7978,6.9746,172.7952,0.0000,0.0000,0.0000,0.0000,0.0000,error_redo
261712,-0.2124,0.0879,0.0290,0.3148,1.2223,-9.7747,1.8011,6.9896,172.7798,0.0000,0.0000,0.0000,0.0000,0.0000,error_redo
261828,-0.2131,0.0671,0.0154,0.2700,1.2139,-9.7370,1.7786,7.0010,172.7744,0.0000,0.0000,0.0000,0.0000,0.0000,error_redo
261944,-0.1580,0.0712,0.0518,0.3645,1.2205,-9.7789,1.8127,7.0119,172.7553,0.0000,0.0000,0.0000,0.0000,0.0000,error_redo
262060,-0.1918,0.0774,0.0277,0.3256,1.2923,-9.6777,1.8224,7.0706,172.6960,0.0000,0.0000,0.0000,0.0000,0.0000,error_redo
262176,-0.2525,0.0882,-0.0001,0.2634,1.2079,-9.7322,1.7940,7.0708,172.7029,0.0000,0.0000,0.0000,0.0000,0.0000,error_redo
262292,-0.2667,0.1112,-0.0007,0.3951,1.0858,-9.7262,1.8457,7.0003,172.7581,0.0000,0.0000,0.0000,0.0000,0.0000,error_redo
262408,-0.1684,0.0469,-0.0248,0.3047,1.0601,-9.7334,1.8394,6.9217,172.8357,0.0000,0.0000,0.0000,0.0000,0.0000,error_redo
262524,-0.1434,0.0461,0.0179,0.2951,1.1570,-9.7256,1.8280,6.9077,172.8522,0.0000,0.0000,0.0000,0.0000,0.0000,error_redo
262640,-0.2862,-0.0597,-0.0763,0.0323,0.8679,-9.8980,1.6621,6.7162,173.0793,0.0000,0.0000,0.0000,0.0000,0.0000,cooldown
262756,-0.2052,-0.0564,-0.0005,0.1880,1.0463,-9.8327,1.6045,6.6515,173.1560,0.0000,0.0000,0.0000,0.0000,0.0000,cooldown
262872,-0.2298,0.0994,0.0378,0.3550,1.2995,-9.5562,1.6540,6.7584,173.0403,0.0000,0.0000,0.0000,0.0000,0.0000,cooldown
262988,-0.1618,0.0789,0.0162,0.3765,1.2881,-9.7250,1.7084,6.8366,172.9512,0.0000,0.0000,0.0000,0.0000,0.0000,cooldown
263104,-0.2337,0.0661,0.0304,0.4447,1.2528,-9.7124,1.7975,6.8872,172.8799,0.0000,0.0000,0.0000,0.0000,0.0000,cooldown
263220,-0.2312,0.0549,-0.0038,0.4268,1.2061,-9.7382,1.8669,6.9039,172.8457,0.0000,0.0000,0.0000,0.0000,0.0000,cooldown
263336,-0.2282,0.0874,0.0188,0.1173,1.2307,-9.6933,1.7494,6.9371,172.8436,0.0000,0.0000,0.0000,0.0000,0.0000,cooldown
263452,-0.2068,0.0663,-0.0315,0.3412,1.2301,-9.7430,1.7735,6.9625,172.8130,0.0000,0.0000,0.0000,0.0000,0.0000,cooldown
263568,-0.2136,0.0856,0.0380,0.4854,1.2289,-9.7477,1.8793,6.9841,172.7651,0.0000,0.0000,0.0000,0.0000,0.0000,cooldown
263684,-0.2545,0.0532,0.0153,0.1556,1.2672,-9.7388,1.7821,7.0271,172.7483,0.0000,0.0000,0.0000,0.0000,0.0000,cooldown
263800,-0.2402,0.0964,0.0334,0.4304,1.2115,-9.7537,1.8547,7.0318,172.7253,0.0000,0.0000,0.0000,0.0000,0.0000,cooldown
263916,-0.2913,0.0909,0.0292,0.4082,1.3163,-9.6969,1.9081,7.1008,172.6447,0.0000,0.0000,0.0000,0.0000,0.0000,cooldown
264032,-0.2718,0.0573,0.0375,0.2023,1.1965,-9.7418,1.8353,7.0909,172.6731,0.0000,0.0000,0.0000,0.0000,0.0000,cooldown
264148,-0.3089,0.0986,0.0631,0.2909,1.2672,-9.7172,1.8218,7.1244,172.6440,0.0000,0.0000,0.0000,0.0000,0.0000,cooldown
264264,-0.2830,0.0545,-0.0105,0.3723,1.1349,-9.7783,1.8564,7.0734,172.6847,0.0000,0.0000,0.0000,0.0000,0.0000,cooldown
264380,-0.1857,0.0811,0.0130,0.2316,1.1421,-9.7136,1.8066,7.0365,172.7330,0.0000,0.0000,0.0000,0.0000,0.0000,cooldown
264496,-0.1242,0.0402,-0.0128,0.3268,1.1235,-9.6909,1.8177,6.9940,172.7713,0.0000,0.0000,0.0000,0.0000,0.0000,cooldown
264612,-0.1125,0.0429,0.0353,0.3831,1.2145,-9.7154,1.8600,7.0066,172.7483,0.0000,0.0000,0.0000,0.0000,0.0000,cooldown
264728,-0.1969,0.0466,0.0008,0.2759,1.2995,-9.7136,1.8353,7.0676,172.6956,0.0000,0.0000,0.0000,0.0000,0.0000,cooldown
264844,-0.2209,0.0753,-0.0210,0.3011,1.2606,-9.7268,1.8276,7.0990,172.6672,0.0000,0.0000,0.0000,0.0000,0.0000,cooldown
264960,-0.2408,0.1036,0.0275,0.4028,1.2265,-9.7358,1.8800,7.1065,172.6465,0.0000,0.0000,0.0000,0.0000,0.0000,cooldown
265076,-0.2613,0.0660,0.0192,0.2316,1.2007,-9.7394,1.8272,7.0985,172.6677,0.0000,0.0000,0.0000,0.0000,0.0000,cooldown
265192,-0.2105,0.0744,0.0256,0.3520,1.1918,-9.7459,1.8498,7.0854,172.6747,0.0000,0.0000,0.0000,0.0000,0.0000,cooldown
265308,-0.1956,0.0783,0.0063,0.3059,1.1744,-9.7388,1.8434,7.0641,172.6970,0.0000,0.0000,0.0000,0.0000,0.0000,cooldown
265424,-0.1913,0.0544,0.0044,0.2424,1.1756,-9.7130,1.8011,7.0476,172.7236,0.0000,0.0000,0.0000,0.0000,0.0000,cooldown
265540,-0.1138,0.0543,0.0447,0.3645,1.1361,-9.7364,1.8340,7.0080,172.7537,0.0000,0.0000,0.0000,0.0000,0.0000,cooldown
265656,-0.1517,0.0420,0.0007,0.3160,1.2618,-9.7076,1.8355,7.0473,172.7152,0.0000,0.0000,0.0000,0.0000,0.0000,cooldown
265772,-0.1536,0.0384,0.0016,0.3645,1.1169,-9.7579,1.8646,6.9950,172.7583,0.0000,0.0000,0.0000,0.0000,0.0000,cooldown
265888,-0.1609,0.0560,-0.0037,0.2813,1.2091,-9.6807,1.8434,7.0071,172.7521,0.0000,0.0000,0.0000,0.0000,0.0000,cooldown
266004,-0.2123,0.1003,0.0270,0.3837,1.2372,-9.7262,1.8832,7.0308,172.7189,0.0000,0.0000,0.0000,0.0000,0.0000,cooldown
266120,-0.2209,0.0934,0.0065,0.3250,1.2247,-9.6603,1.8860,7.0497,172.6999,0.0000,0.0000,0.0000,0.0000,0.0000,cooldown
266236,-0.2423,0.0611,0.0420,0.2676,1.2690,-9.7214,1.8537,7.0882,172.6710,0.0000,0.0000,0.0000,0.0000,0.0000,cooldown
266352,-0.2098,0.0772,0.0571,0.3945,1.1870,-9.7046,1.8993,7.0762,172.6708,0.0000,0.0000,0.0000,0.0000,0.0000,cooldown
266468,-0.2136,0.0564,0.0023,0.3196,1.1798,-9.7322,1.8961,7.0594,172.6879,0.0000,0.0000,0.0000,0.0000,0.0000,cooldown
266584,-0.1899,0.0491,0.0075,0.2340,1.1840,-9.7220,1.8434,7.0476,172.7129,0.0000,0.0000,0.0000,0.0000,0.0000,cooldown
266700,-0.2005,0.0811,0.0354,0.3975,1.1942,-9.7178,1.8915,7.0429,172.7051,0.0000,0.0000,0.0000,0.0000,0.0000,cooldown
266816,-0.2268,0.0353,0.0094,0.3448,1.2163,-9.7190,1.9040,7.0515,172.6935,0.0000,0.0000,0.0000,0.0000,0.0000,cooldown
266932,-0.2440,0.0379,0.0484,0.2640,1.1930,-9.7274,1.8679,7.0452,172.7089,0.0000,0.0000,0.0000,0.0000,0.0000,cooldown
267048,-0.1790,0.0615,-0.0543,0.3394,1.1606,-9.7274,1.8795,7.0207,172.7296,0.0000,0.0000,0.0000,0.0000,0.0000,cooldown
267164,-0.1917,0.0830,0.0004,0.3340,1.1936,-9.7118,1.8870,7.0189,172.7294,0.0000,0.0000,0.0000,0.0000,0.0000,cooldown
267280,-0.2323,0.0414,-0.0123,0.1874,1.1942,-9.7040,1.8083,7.0185,172.7501,0.0000,0.0000,0.0000,0.0000,0.0000,cooldown
267396,-0.2194,0.0604,0.0286,0.3657,1.1852,-9.7082,1.8416,7.0122,172.7477,0.0000,0.0000,0.0000,0.0000,0.0000,cooldown
267512,-0.2639,0.0772,-0.0158,0.2849,1.2271,-9.7795,1.8229,7.0259,172.7392,0.0000,0.0000,0.0000,0.0000,0.0000,cooldown
267628,-0.1828,0.0721,-0.0014,0.2861,1.1552,-9.7166,1.8081,7.0011,172.7669,0.0000,0.0000,0.0000,0.0000,0.0000,cooldown
267744,-0.1666,0.0585,0.0249,0.2400,1.1427,-9.7603,1.7671,6.9684,172.8088,0.0000,0.0000,0.0000,0.0000,0.0000,cooldown
267860,-0.1564,0.0513,-0.0586,0.4172,1.1959,-9.7406,1.8339,6.9710,172.7895,0.0000,0.0000,0.0000,0.0000,0.0000,cooldown
267976,-0.1988,0.0481,-0.0342,0.3172,1.1965,-9.7525,1.8355,6.9730,172.7872,0.0000,0.0000,0.0000,0.0000,0.0000,cooldown
268092,-0.1902,0.0562,0.0213,0.3023,1.2780,-9.7358,1.8282,7.0232,172.7404,0.0000,0.0000,0.0000,0.0000,0.0000,cooldown
268208,-0.2413,0.0613,0.0086,0.3538,1.2953,-9.7070,1.8523,7.0804,172.6789,0.0000,0.0000,0.0000,0.0000,0.0000,cooldown
268324,-0.2200,0.0609,0.0458,0.3214,1.2869,-9.7208,1.8548,7.1261,172.6340,0.0000,0.0000,0.0000,0.0000,0.0000,cooldown
268440,-0.2451,0.0808,0.0225,0.3591,1.1594,-9.7388,1.8791,7.0920,172.6608,0.0000,0.0000,0.0000,0.0000,0.0000,cooldown
268556,-0.2192,0.0762,0.0056,0.2747,1.1882,-9.7639,1.8511,7.0763,172.6832,0.0000,0.0000,0.0000,0.0000,0.0000,cooldown
268672,-0.1775,0.1151,-0.0095,0.2969,1.1092,-9.7513,1.8393,7.0172,172.7434,0.0000,0.0000,0.0000,0.0000,0.0000,cooldown
268788,-0.1688,0.0513,-0.0277,0.4106,1.1804,-9.8208,1.8935,7.0002,172.7458,0.0000,0.0000,0.0000,0.0000,0.0000,cooldown
268904,-0.1930,0.0420,0.0045,0.2951,1.1469,-9.7561,1.8762,6.9703,172.7792,0.0000,0.0000,0.0000,0.0000,0.0000,cooldown
269020,-0.1823,0.0489,0.0416,0.3933,1.1965,-9.7555,1.9177,6.9720,172.7665,0.0000,0.0000,0.0000,0.0000,0.0000,cooldown
269136,-0.2308,0.1144,0.0277,0.2801,1.1115,-9.7166,1.8901,6.9273,172.8170,0.0000,0.0000,0.0000,0.0000,0.0000,cooldown
269252,-0.1918,0.0618,-0.0312,0.2915,1.1858,-9.7280,1.8715,6.9292,172.8201,0.0000,0.0000,0.0000,0.0000,0.0000,cooldown
269368,-0.2168,0.0817,0.0117,0.2688,1.1379,-9.7376,1.8414,6.9026,172.8537,0.0000,0.0000,0.0000,0.0000,0.0000,cooldown
269484,-0.1675,0.0538,-0.0053,0.2783,1.1750,-9.7519,1.8196,6.8991,172.8627,0.0000,0.0000,0.0000,0.0000,0.0000,cooldown
269600,-0.1815,0.0510,0.0417,0.3364,1.0804,-9.7501,1.8340,6.8411,172.9150,0.0000,0.0000,0.0000,0.0000,0.0000,cooldown
269716,-0.1331,0.0443,-0.0346,0.2556,1.1852,-9.6645,1.8012,6.8558,172.9093,0.0000,0.0000,0.0000,0.0000,0.0000,cooldown
269832,-0.1958,0.0830,0.0041,0.2430,1.1415,-9.7459,1.7630,6.8381,172.9362,0.0000,0.0000,0.0000,0.0000,0.0000,cooldown
269948,-0.1881,0.0660,-0.0109,0.3765,1.1750,-9.7256,1.8067,6.8426,172.9206,0.0000,0.0000,0.0000,0.0000,0.0000,cooldown
270064,-0.2172,0.0485,-0.0470,0.2646,1.1391,-9.7759,1.7800,6.8227,172.9468,0.0000,0.0000,0.0000,0.0000,0.0000,cooldown
270180,-0.1708,0.0635,0.0145,0.3292,1.3815,-9.7980,1.7927,6.9435,172.8266,0.0000,0.0000,0.0000,0.0000,0.0000,cooldown
270296,-0.2883,0.1216,-0.0035,0.3538,1.3725,-9.6801,1.8205,7.0552,172.7113,0.0000,0.0000,0.0000,0.0000,0.0000,cooldown
270412,-0.3847,0.0855,0.0083,0.2328,1.2672,-9.7447,1.7742,7.0905,172.6887,0.0000,0.0000,0.0000,0.0000,0.0000,cooldown
270528,-0.2256,0.0440,0.0303,0.2257,1.0972,-9.7525,1.7285,7.0232,172.7652,0.0000,0.0000,0.0000,0.0000,0.0000,cooldown
270644,-0.1489,0.0724,-0.0181,0.3172,1.1475,-9.7663,1.7405,6.9906,172.7939,0.0000,0.0000,0.0000,0.0000,0.0000,cooldown
270760,-0.1093,0.0669,-0.0357,0.3645,1.2265,-9.7268,1.7793,7.0097,172.7658,0.0000,0.0000,0.0000,0.0000,0.0000,cooldown
270876,-0.2035,0.0823,-0.0300,0.2735,1.2223,-9.7621,1.7606,7.0221,172.7584,0.0000,0.0000,0.0000,0.0000,0.0000,cooldown
270992,-0.2153,0.0882,0.0110,0.3490,1.2953,-9.7178,1.7884,7.0786,172.6967,0.0000,0.0000,0.0000,0.0000,0.0000,cooldown
271108,-0.2127,0.0637,-0.0529,0.2831,1.1774,-9.7052,1.7755,7.0622,172.7158,0.0000,0.0000,0.0000,0.0000,0.0000,cooldown
271224,-0.1958,0.0686,-0.0083,0.3699,1.2462,-9.7328,1.8138,7.0852,172.6840,0.0000,0.0000,0.0000,0.0000,0.0000,cooldown
271340,-0.1804,0.0562,0.0239,0.3370,1.1918,-9.7316,1.8293,7.0744,172.6905,0.0000,0.0000,0.0000,0.0000,0.0000,cooldown
271456,-0.2348,0.0359,-0.0042,0.2622,1.2492,-9.7160,1.7997,7.0993,172.6738,0.0000,0.0000,0.0000,0.0000,0.0000,cooldown
271572,-0.2230,0.0766,0.0091,0.3424,1.0732,-9.7657,1.8194,7.0161,172.7496,0.0000,0.0000,0.0000,0.0000,0.0000,cooldown
271688,-0.2379,0.0690,0.0943,0.3059,1.2031,-9.7040,1.8166,7.0209,172.7456,0.0000,0.0000,0.0000,0.0000,0.0000,cooldown
271804,-0.1954,0.1042,0.0308,0.2927,1.1576,-9.7238,1.8062,6.9974,172.7710,0.0000,0.0000,0.0000,0.0000,0.0000,cooldown
271920,-0.2053,0.0391,-0.0611,0.3154,1.2492,-9.7573,1.8093,7.0270,172.7416,0.0000,0.0000,0.0000,0.0000,0.0000,cooldown
272036,-0.2185,0.0852,-0.0022,0.3011,1.3713,-9.7346,1.8038,7.1259,172.6470,0.0000,0.0000,0.0000,0.0000,0.0000,cooldown
272152,-0.1940,0.0638,0.0293,0.2412,1.1756,-9.7005,1.7650,7.1042,172.6776,0.0000,0.0000,0.0000,0.0000,0.0000,cooldown
272268,-0.1966,0.0618,0.0195,0.2963,1.1534,-9.7238,1.7618,7.0700,172.7116,0.0000,0.0000,0.0000,0.0000,0.0000,cooldown
272384,-0.2365,0.0443,-0.0383,0.3113,1.1570,-9.7124,1.7679,7.0421,172.7372,0.0000,0.0000,0.0000,0.0000,0.0000,cooldown
272500,-0.1992,0.0699,-0.0453,0.3250,1.1528,-9.7513,1.7807,7.0117,172.7635,0.0000,0.0000,0.0000,0.0000,0.0000,cooldown
272616,-0.1764,0.0603,0.0044,0.2628,1.1606,-9.7388,1.7561,6.9899,172.7907,0.0000,0.0000,0.0000,0.0000,0.0000,nothing
272732,-0.1765,0.0784,0.0053,0.2616,1.2061,-9.7196,1.7335,6.9981,172.7883,0.0000,0.0000,0.0000,0.0000,0.0000,nothing
272848,-0.1703,0.0648,0.0414,0.2897,1.1989,-9.7483,1.7291,6.9991,172.7884,0.0000,0.0000,0.0000,0.0000,0.0000,nothing
272964,-0.1907,0.0893,-0.0189,0.3196,1.1804,-9.7088,1.7433,6.9920,172.7918,0.0000,0.0000,0.0000,0.0000,0.0000,nothing
273080,-0.1820,0.0638,-0.0075,0.3107,1.1983,-9.7148,1.7508,6.9957,172.7865,0.0000,0.0000,0.0000,0.0000,0.0000,nothing
273196,-0.2079,0.0590,0.0380,0.3005,1.1774,-9.7471,1.7510,6.9845,172.7972,0.0000,0.0000,0.0000,0.0000,0.0000,nothing
273312,-0.1438,0.0180,0.0014,0.3059,1.1756,-9.7160,1.7549,6.9756,172.8049,0.0000,0.0000,0.0000,0.0000,0.0000,nothing
273428,-0.2045,0.0744,0.0228,0.3137,1.1744,-9.7298,1.7627,6.9660,172.8123,0.0000,0.0000,0.0000,0.0000,0.0000,nothing
273544,-0.1892,0.0624,-0.0264,0.3125,1.1750,-9.7238,1.7692,6.9580,172.8184,0.0000,0.0000,0.0000,0.0000,0.0000,nothing
273660,-0.2401,0.0498,-0.0079,0.2472,1.1744,-9.8040,1.7354,6.9450,172.8394,0.0000,0.0000,0.0000,0.0000,0.0000,nothing
273776,-0.1963,0.0804,0.0072,0.4064,1.1798,-9.7639,1.7987,6.9389,172.8295,0.0000,0.0000,0.0000,0.0000,0.0000,nothing
273892,-0.1865,0.0633,0.0368,0.2718,1.0667,-9.7747,1.7771,6.8674,172.9042,0.0000,0.0000,0.0000,0.0000,0.0000,nothing
274008,-0.1553,0.0397,-0.0116,0.3430,1.1433,-9.6963,1.8005,6.8528,172.9124,0.0000,0.0000,0.0000,0.0000,0.0000,nothing
274124,-0.2271,0.0656,-0.0421,0.2424,1.1971,-9.7322,1.7621,6.8686,172.9069,0.0000,0.0000,0.0000,0.0000,0.0000,nothing
274240,-0.1928,0.1198,-0.0714,0.5387,1.3462,-9.7160,1.9004,6.9696,172.7734,0.0000,0.0000,0.0000,0.0000,0.0000,nothing
274356,-0.3228,0.1040,0.0125,0.2735,1.3276,-9.7567,1.8694,7.0475,172.7063,0.0000,0.0000,0.0000,0.0000,0.0000,nothing
274472,0.1378,0.1035,0.0064,0.3238,1.4025,-9.6663,1.8724,7.1674,172.5896,0.0000,0.0000,0.0000,0.0000,0.0000,หนึ่ง
274588,-0.1253,0.0706,0.0194,0.5651,1.1277,-9.7789,2.0143,7.1073,172.6099,0.0000,0.0000,0.0000,0.0000,0.0000,หนึ่ง
274704,-0.3061,0.0338,-0.0075,0.5004,1.3133,-9.8268,2.1027,7.1574,172.5370,0.0000,0.0000,0.0000,0.0000,0.0000,หนึ่ง
274820,-0.2789,0.0806,-0.0526,0.1161,1.3151,-9.6789,1.9613,7.2152,172.5202,0.0000,0.0000,0.0000,0.0000,0.0000,หนึ่ง
274936,-0.2908,0.1044,0.0086,0.3945,1.1906,-9.7705,1.9948,7.1878,172.5377,0.0000,0.0000,0.0000,0.0000,0.0000,หนึ่ง
275052,-0.2563,0.0683,0.0387,0.3304,1.2343,-9.6921,1.9890,7.1943,172.5330,0.0000,0.0000,0.0000,0.0000,0.0000,หนึ่ง
275168,-0.2143,0.0943,0.0019,0.2077,1.1971,-9.7310,1.9116,7.1762,172.5710,0.0000,0.0000,0.0000,0.0000,0.0000,หนึ่ง
275284,-0.2402,0.0755,0.0408,0.3556,1.1995,-9.7513,1.9277,7.1593,172.5831,0.0000,0.0000,0.0000,0.0000,0.0000,หนึ่ง
275400,-0.2119,0.0808,-0.0160,0.3556,1.1169,-9.7645,1.9421,7.0955,172.6409,0.0000,0.0000,0.0000,0.0000,0.0000,หนึ่ง
275516,-0.1887,0.0635,0.0258,0.2598,1.1876,-9.7112,1.9002,7.0829,172.6641,0.0000,0.0000,0.0000,0.0000,0.0000,หนึ่ง
275632,-0.1890,0.0733,-0.0057,0.3232,1.2031,-9.7519,1.8985,7.0776,172.6697,0.0000,0.0000,0.0000,0.0000,0.0000,หนึ่ง
275748,-0.1930,0.0709,0.0668,0.3693,1.2468,-9.7579,1.9238,7.0975,172.6438,0.0000,0.0000,0.0000,0.0000,0.0000,หนึ่ง
275864,-0.1919,0.0654,0.0011,0.2670,1.2217,-9.7124,1.8877,7.1044,172.6466,0.0000,0.0000,0.0000,0.0000,0.0000,หนึ่ง
275980,-0.2273,0.0706,-0.0138,0.3244,1.1912,-9.7418,1.8883,7.0907,172.6597,0.0000,0.0000,0.0000,0.0000,0.0000,หนึ่ง
276096,-0.1928,0.0571,-0.0421,0.3747,1.1816,-9.7322,1.9183,7.0734,172.6685,0.0000,0.0000,0.0000,0.0000,0.0000,หนึ่ง
276212,-0.2136,0.0502,0.0119,0.2969,1.2313,-9.7124,1.9002,7.0882,172.6590,0.0000,0.0000,0.0000,0.0000,0.0000,หนึ่ง
276328,-0.2259,0.0660,0.0404,0.3490,1.2271,-9.7328,1.9139,7.0975,172.6464,0.0000,0.0000,0.0000,0.0000,0.0000,หนึ่ง
276444,-0.1913,0.0870,0.0244,0.3544,1.1714,-9.7370,1.9295,7.0733,172.6657,0.0000,0.0000,0.0000,0.0000,0.0000,หนึ่ง
276560,-0.1877,0.0900,-0.0807,0.2616,1.2217,-9.7226,1.8895,7.0819,172.6679,0.0000,0.0000,0.0000,0.0000,0.0000,หนึ่ง
276676,-0.2140,0.0694,0.0954,0.2484,1.2426,-9.7298,1.8456,7.1013,172.6604,0.0000,0.0000,0.0000,0.0000,0.0000,หนึ่ง
276792,-0.2268,0.0271,-0.0304,0.3921,1.2361,-9.6777,1.8910,7.1184,172.6322,0.0000,0.0000,0.0000,0.0000,0.0000,หนึ่ง
276908,-0.2086,0.0969,-0.0038,0.3220,1.1894,-9.7340,1.8899,7.1028,172.6476,0.0000,0.0000,0.0000,0.0000,0.0000,หนึ่ง
277024,-0.1860,0.0795,0.0753,0.2532,1.1223,-9.7214,1.8492,7.0509,172.7082,0.0000,0.0000,0.0000,0.0000,0.0000,หนึ่ง
277140,-0.1939,0.0517,-0.0309,0.2328,1.1708,-9.7603,1.7999,7.0297,172.7413,0.0000,0.0000,0.0000,0.0000,0.0000,หนึ่ง
277256,-0.1864,0.0650,0.0091,0.4004,1.1391,-9.7549,1.8535,6.9921,172.7640,0.0000,0.0000,0.0000,0.0000,0.0000,หนึ่ง
277372,-0.1635,0.0449,0.0221,0.2508,1.2223,-9.7334,1.8146,7.0084,172.7582,0.0000,0.0000,0.0000,0.0000,0.0000,หนึ่ง
277488,-0.2320,0.0864,-0.0736,0.3442,1.3193,-9.7262,1.8340,7.0796,172.6843,0.0000,0.0000,0.0000,0.0000,0.0000,หนึ่ง
277604,-0.2296,0.0800,-0.0691,0.3957,1.2349,-9.7364,1.8815,7.0939,172.6583,0.0000,0.0000,0.0000,0.0000,0.0000,หนึ่ง
277720,-0.2536,0.0920,0.0308,0.2706,1.2199,-9.7364,1.8513,7.0984,172.6617,0.0000,0.0000,0.0000,0.0000,0.0000,หนึ่ง
277836,-0.1921,0.0748,0.0344,0.2622,1.2259,-9.7160,1.8195,7.1074,172.6610,0.0000,0.0000,0.0000,0.0000,0.0000,หนึ่ง
277952,-0.1989,0.0818,-0.0184,0.3400,1.1924,-9.7603,1.8357,7.0927,172.6712,0.0000,0.0000,0.0000,0.0000,0.0000,หนึ่ง
278068,-0.2097,0.0618,-0.0428,0.2688,1.1810,-9.6903,1.8099,7.0781,172.6918,0.0000,0.0000,0.0000,0.0000,0.0000,หนึ่ง
278184,-0.1688,0.0684,0.0404,0.2592,1.2235,-9.7298,1.7803,7.0868,172.6908,0.0000,0.0000,0.0000,0.0000,0.0000,หนึ่ง
278300,-0.2427,0.0538,-0.0275,0.3813,1.2456,-9.7388,1.8248,7.1065,172.6607,0.0000,0.0000,0.0000,0.0000,0.0000,หนึ่ง
278416,-0.2710,0.0673,-0.0074,0.2538,1.2259,-9.7453,1.7902,7.1126,172.6633,0.0000,0.0000,0.0000,0.0000,0.0000,หนึ่ง
278532,-0.2474,0.0776,0.0438,0.3466,1.1469,-9.7124,1.8141,7.0744,172.6944,0.0000,0.0000,0.0000,0.0000,0.0000,หนึ่ง
278648,-0.2072,0.0603,0.0738,0.2945,1.1930,-9.7483,1.8045,7.0643,172.7066,0.0000,0.0000,0.0000,0.0000,0.0000,หนึ่ง
278764,-0.2372,0.0680,-0.0275,0.2700,1.2241,-9.7292,1.7817,7.0747,172.7021,0.0000,0.0000,0.0000,0.0000,0.0000,หนึ่ง
278880,-0.2226,0.0788,-0.0104,0.3238,1.1648,-9.7232,1.7929,7.0501,172.7233,0.0000,0.0000,0.0000,0.0000,0.0000,หนึ่ง
278996,-0.1985,0.0549,0.0713,0.2885,1.1600,-9.7268,1.7823,7.0249,172.7503,0.0000,0.0000,0.0000,0.0000,0.0000,หนึ่ง
279112,-0.1650,0.0654,-0.0067,0.4070,1.1995,-9.6975,1.8425,7.0270,172.7332,0.0000,0.0000,0.0000,0.0000,0.0000,หนึ่ง
279228,-0.2262,0.0746,0.1213,0.2604,1.2055,-9.7346,1.8103,7.0300,172.7384,0.0000,0.0000,0.0000,0.0000,0.0000,หนึ่ง
279344,-0.2026,0.0744,0.0145,0.3220,1.1852,-9.7388,1.8173,7.0205,172.7459,0.0000,0.0000,0.0000,0.0000,0.0000,หนึ่ง
279460,-0.1907,0.0538,-0.0592,0.3795,1.2893,-9.7741,1.8562,7.0696,172.6884,0.0000,0.0000,0.0000,0.0000,0.0000,หนึ่ง
279576,-0.2555,0.0803,0.0048,0.2664,1.2337,-9.7142,1.8264,7.0861,172.6800,0.0000,0.0000,0.0000,0.0000,0.0000,หนึ่ง
279692,-0.2162,0.0858,-0.0262,0.3184,1.1971,-9.7657,1.8292,7.0760,172.6891,0.0000,0.0000,0.0000,0.0000,0.0000,หนึ่ง
279808,-0.2244,0.0834,0.0038,0.3747,1.1684,-9.7370,1.8651,7.0522,172.7030,0.0000,0.0000,0.0000,0.0000,0.0000,หนึ่ง
279924,-0.2337,0.0710,-0.0010,0.2245,1.2193,-9.7058,1.8102,7.0628,172.7067,0.0000,0.0000,0.0000,0.0000,0.0000,หนึ่ง
280040,-0.2159,0.0758,0.0008,0.3334,1.1930,-9.7310,1.8239,7.0550,172.7107,0.0000,0.0000,0.0000,0.0000,0.0000,หนึ่ง
280156,-0.2147,0.0776,-0.0207,0.3556,1.1834,-9.7052,1.8497,7.0443,172.7145,0.0000,0.0000,0.0000,0.0000,0.0000,หนึ่ง
280272,-0.2009,0.0627,0.0365,0.3053,1.1870,-9.7334,1.8431,7.0348,172.7254,0.0000,0.0000,0.0000,0.0000,0.0000,หนึ่ง
280388,-0.2120,0.0364,-0.0166,0.2436,1.2217,-9.6975,1.8017,7.0491,172.7221,0.0000,0.0000,0.0000,0.0000,0.0000,หนึ่ง
280504,-0.2056,0.0986,-0.0338,0.3502,1.2217,-9.7477,1.8257,7.0581,172.7073,0.0000,0.0000,0.0000,0.0000,0.0000,หนึ่ง
280620,-0.2228,0.0664,0.0352,0.3621,1.1936,-9.7274,1.8547,7.0513,172.7064,0.0000,0.0000,0.0000,0.0000,0.0000,หนึ่ง
280736,-0.2108,0.0961,-0.0361,0.2203,1.2097,-9.7866,1.7969,7.0507,172.7216,0.0000,0.0000,0.0000,0.0000,0.0000,หนึ่ง
280852,-0.1845,0.0875,-0.0128,0.3478,1.1648,-9.7549,1.8200,7.0261,172.7397,0.0000,0.0000,0.0000,0.0000,0.0000,หนึ่ง
280968,-0.2173,0.0806,0.0327,0.2700,1.2157,-9.7442,1.7955,7.0344,172.7378,0.0000,0.0000,0.0000,0.0000,0.0000,หนึ่ง
281084,-0.2346,0.0564,0.1016,0.3400,1.1983,-9.7597,1.8140,7.0305,172.7369,0.0000,0.0000,0.0000,0.0000,0.0000,หนึ่ง
281200,-0.2181,0.0555,-0.0132,0.2849,1.2103,-9.7501,1.7987,7.0348,172.7366,0.0000,0.0000,0.0000,0.0000,0.0000,หนึ่ง
281316,-0.2117,0.0410,0.0057,0.3148,1.2121,-9.7561,1.8023,7.0392,172.7315,0.0000,0.0000,0.0000,0.0000,0.0000,หนึ่ง
281432,-0.1978,0.0626,0.0301,0.3214,1.2223,-9.7418,1.8095,7.0500,172.7192,0.0000,0.0000,0.0000,0.0000,0.0000,หนึ่ง
281548,-0.2274,0.0814,0.0275,0.2975,1.1888,-9.7621,1.8018,7.0390,172.7318,0.0000,0.0000,0.0000,0.0000,0.0000,หนึ่ง
281664,-0.2079,0.0676,-0.0093,0.3412,1.1696,-9.7555,1.8206,7.0183,172.7471,0.0000,0.0000,0.0000,0.0000,0.0000,หนึ่ง
281780,-0.1853,0.0663,-0.0089,0.3322,1.1804,-9.7202,1.8328,7.0085,172.7535,0.0000,0.0000,0.0000,0.0000,0.0000,หนึ่ง
281896,-0.1774,0.0810,-0.0170,0.3370,1.1205,-9.7364,1.8464,6.9638,172.7932,0.0000,0.0000,0.0000,0.0000,0.0000,หนึ่ง
282012,-0.1648,0.0303,-0.0120,0.2700,1.1427,-9.7442,1.8194,6.9361,172.8270,0.0000,0.0000,0.0000,0.0000,0.0000,หนึ่ง
282128,-0.1425,0.0481,-0.0150,0.3579,1.1355,-9.6921,1.8474,6.9103,172.8447,0.0000,0.0000,0.0000,0.0000,0.0000,หนึ่ง
282244,-0.1842,0.0638,0.0461,0.3412,1.3540,-9.7352,1.8615,7.0108,172.7439,0.0000,0.0000,0.0000,0.0000,0.0000,หนึ่ง
282360,-0.1884,0.0649,-0.0293,0.3322,1.2193,-9.7280,1.8694,7.0237,172.7293,0.0000,0.0000,0.0000,0.0000,0.0000,หนึ่ง
282476,-0.2054,0.0788,0.0014,0.3442,1.1953,-9.7759,1.8827,7.0180,172.7314,0.0000,0.0000,0.0000,0.0000,0.0000,หนึ่ง
282592,-0.2380,0.1065,0.0200,0.3615,1.2504,-9.7340,1.9054,7.0477,172.6967,0.0000,0.0000,0.0000,0.0000,0.0000,หนึ่ง
282708,-0.2210,0.0979,0.0267,0.2724,1.1517,-9.7094,1.8745,7.0193,172.7323,0.0000,0.0000,0.0000,0.0000,0.0000,หนึ่ง
282824,-0.2221,0.0648,-0.0038,0.3262,1.1798,-9.7447,1.8774,7.0073,172.7432,0.0000,0.0000,0.0000,0.0000,0.0000,หนึ่ง
282940,-0.1899,0.0703,0.0060,0.3579,1.2438,-9.7645,1.8980,7.0321,172.7138,0.0000,0.0000,0.0000,0.0000,0.0000,หนึ่ง
283056,-0.1990,0.0635,0.0011,0.3196,1.2229,-9.7124,1.8952,7.0461,172.7010,0.0000,0.0000,0.0000,0.0000,0.0000,หนึ่ง
283172,-0.1930,0.0911,0.0106,0.4250,1.3145,-9.7382,1.9535,7.1096,172.6242,0.0000,0.0000,0.0000,0.0000,0.0000,หนึ่ง
283288,-0.1890,0.0335,-0.0104,0.3190,1.1666,-9.7124,1.9449,7.0833,172.6519,0.0000,0.0000,0.0000,0.0000,0.0000,หนึ่ง
283404,-0.2222,0.0714,-0.0652,0.3065,1.1187,-9.7011,1.9303,7.0327,172.7046,0.0000,0.0000,0.0000,0.0000,0.0000,หนึ่ง
283520,-0.1875,0.0585,0.0676,0.2364,1.1600,-9.7591,1.8750,7.0071,172.7440,0.0000,0.0000,0.0000,0.0000,0.0000,หนึ่ง
283636,-0.2188,0.0706,0.1384,0.3244,1.1654,-9.7729,1.8763,6.9860,172.7640,0.0000,0.0000,0.0000,0.0000,0.0000,หนึ่ง
283752,-0.1924,0.0732,0.0342,0.3310,1.1983,-9.7280,1.8821,6.9892,172.7594,0.0000,0.0000,0.0000,0.0000,0.0000,หนึ่ง
283868,-0.1602,0.0702,0.0132,0.3071,1.1558,-9.7154,1.8736,6.9685,172.7816,0.0000,0.0000,0.0000,0.0000,0.0000,หนึ่ง
283984,-0.2097,0.0487,0.0082,0.3340,1.2079,-9.6897,1.8821,6.9818,172.7666,0.0000,0.0000,0.0000,0.0000,0.0000,หนึ่ง
284100,-0.1810,0.0507,0.0517,0.3119,1.0966,-9.7759,1.8755,6.9231,172.8250,0.0000,0.0000,0.0000,0.0000,0.0000,หนึ่ง
284216,-0.1934,0.0747,0.0067,0.2777,1.2768,-9.6987,1.8506,6.9803,172.7762,0.0000,0.0000,0.0000,0.0000,0.0000,หนึ่ง
284332,-0.1825,0.0688,0.0183,0.3268,1.2319,-9.7346,1.8564,7.0031,172.7527,0.0000,0.0000,0.0000,0.0000,0.0000,หนึ่ง
284448,-0.2720,0.0843,0.0087,0.3603,1.3049,-9.7100,1.8813,7.0676,172.6838,0.0000,0.0000,0.0000,0.0000,0.0000,หนึ่ง
284564,-0.2688,0.1013,0.0221,0.3388,1.1702,-9.7118,1.8916,7.0476,172.7005,0.0000,0.0000,0.0000,0.0000,0.0000,หนึ่ง
284680,-0.2349,0.0577,0.0315,0.2879,1.1044,-9.7160,1.8711,6.9911,172.7604,0.0000,0.0000,0.0000,0.0000,0.0000,หนึ่ง
284796,-0.1744,0.0225,-0.0185,0.3119,1.2600,-9.7382,1.8659,7.0289,172.7252,0.0000,0.0000,0.0000,0.0000,0.0000,หนึ่ง
284912,-0.2451,0.0766,0.0397,0.3190,1.2684,-9.7094,1.8659,7.0699,172.6856,0.0000,0.0000,0.0000,0.0000,0.0000,หนึ่ง
285028,-0.1914,0.0622,-0.0161,0.3244,1.2432,-9.7465,1.8684,7.0894,172.6660,0.0000,0.0000,0.0000,0.0000,0.0000,หนึ่ง
285144,-0.1693,0.0757,0.0213,0.3029,1.1343,-9.6149,1.8609,7.0534,172.7028,0.0000,0.0000,0.0000,0.0000,0.0000,หนึ่ง
285260,-0.2345,0.0269,-0.0019,0.3340,1.2331,-9.7765,1.8690,7.0666,172.6880,0.0000,0.0000,0.0000,0.0000,0.0000,หนึ่ง
285376,-0.2551,0.1115,0.0035,0.2352,1.1846,-9.7166,1.8198,7.0548,172.7119,0.0000,0.0000,0.0000,0.0000,0.0000,หนึ่ง
285492,-0.2089,0.0705,0.0011,0.3304,1.2408,-9.6861,1.8316,7.0789,172.6857,0.0000,0.0000,0.0000,0.0000,0.0000,หนึ่ง
285608,-0.2127,0.0703,0.0264,0.2909,1.1020,-9.7771,1.8177,7.0135,172.7525,0.0000,0.0000,0.0000,0.0000,0.0000,หนึ่ง
285724,-0.1562,0.0446,-0.0057,0.3747,1.1953,-9.7106,1.8552,7.0134,172.7430,0.0000,0.0000,0.0000,0.0000,0.0000,หนึ่ง
285840,-0.1753,0.0675,-0.0743,0.2759,1.2055,-9.7364,1.8308,7.0176,172.7452,0.0000,0.0000,0.0000,0.0000,0.0000,หนึ่ง
285956,-0.2091,0.1062,0.0379,0.3891,1.3372,-9.7364,1.8746,7.0975,172.6566,0.0000,0.0000,0.0000,0.0000,0.0000,หนึ่ง
286072,-0.2221,0.0859,0.0597,0.2789,1.1361,-9.6933,1.8509,7.0561,172.7027,0.0000,0.0000,0.0000,0.0000,0.0000,หนึ่ง
286188,-0.2258,0.0953,0.0365,0.3723,1.3175,-9.7100,1.8834,7.1227,172.6300,0.0000,0.0000,0.0000,0.0000,0.0000,หนึ่ง
286304,-0.2150,0.0848,-0.0124,0.3160,1.2097,-9.7489,1.8794,7.1174,172.6362,0.0000,0.0000,0.0000,0.0000,0.0000,หนึ่ง
286420,-0.2091,0.0770,0.0030,0.3053,1.1175,-9.7849,1.8689,7.0566,172.6977,0.0000,0.0000,0.0000,0.0000,0.0000,หนึ่ง
286536,-0.1660,0.0592,0.0367,0.3298,1.1792,-9.7567,1.8743,7.0397,172.7127,0.0000,0.0000,0.0000,0.0000,0.0000,หนึ่ง
286652,-0.3156,0.1047,-0.0121,0.2310,1.2396,-9.7537,1.8213,7.0599,172.7067,0.0000,0.0000,0.0000,0.0000,0.0000,หนึ่ง
286768,-0.1317,0.0327,-0.0787,0.3496,0.9595,-9.7190,1.8442,6.9179,172.8382,0.0000,0.0000,0.0000,0.0000,0.0000,หนึ่ง
286884,-0.1288,0.0443,-0.0139,0.3657,1.1235,-9.7328,1.8735,6.8842,172.8631,0.0000,0.0000,0.0000,0.0000,0.0000,หนึ่ง
287000,-0.1219,0.0552,-0.0125,0.3298,1.2408,-9.6981,1.8794,6.9244,172.8227,0.0000,0.0000,0.0000,0.0000,0.0000,หนึ่ง
287116,-0.1575,0.0682,-0.0004,0.3328,1.2528,-9.6861,1.8866,6.9683,172.7784,0.0000,0.0000,0.0000,0.0000,0.0000,หนึ่ง
287232,-0.1378,0.0855,0.0029,0.3424,1.0212,-9.5598,1.9016,6.8823,172.8574,0.0000,0.0000,0.0000,0.0000,0.0000,break_time
287348,-0.1403,0.0605,0.0255,0.3837,1.2001,-9.7866,1.9346,6.8928,172.8384,0.0000,0.0000,0.0000,0.0000,0.0000,break_time
287464,-0.2500,0.0961,-0.0119,0.3262,1.2265,-9.6765,1.9327,6.9253,172.8075,0.0000,0.0000,0.0000,0.0000,0.0000,break_time
287580,-0.2548,0.0506,0.0612,0.2706,1.1876,-9.7471,1.8971,6.9272,172.8153,0.0000,0.0000,0.0000,0.0000,0.0000,break_time
287696,-0.2309,0.1152,-0.0367,0.2640,1.2462,-9.7765,1.8606,6.9609,172.7924,0.0000,0.0000,0.0000,0.0000,0.0000,break_time
287812,-0.1782,0.0774,-0.0110,0.3609,1.0870,-9.7651,1.8850,6.8994,172.8453,0.0000,0.0000,0.0000,0.0000,0.0000,break_time
287928,-0.2048,0.0819,-0.0209,0.3484,1.3246,-9.7471,1.8994,6.9832,172.7607,0.0000,0.0000,0.0000,0.0000,0.0000,break_time
288044,-0.1881,0.0691,-0.0693,0.3621,1.1822,-9.7334,1.9210,6.9769,172.7610,0.0000,0.0000,0.0000,0.0000,0.0000,break_time
288160,-0.2803,0.0462,0.1016,0.3382,1.2097,-9.7615,1.9258,6.9852,172.7516,0.0000,0.0000,0.0000,0.0000,0.0000,break_time
288276,-0.1809,0.0577,0.0657,0.2670,1.1181,-9.6891,1.8902,6.9450,172.7999,0.0000,0.0000,0.0000,0.0000,0.0000,break_time
288392,-0.2034,0.0255,-0.0438,0.2520,1.0894,-9.7693,1.8480,6.8864,172.8676,0.0000,0.0000,0.0000,0.0000,0.0000,break_time
288508,-0.1684,0.0731,0.0488,0.3579,1.2797,-9.7172,1.8723,6.9475,172.8022,0.0000,0.0000,0.0000,0.0000,0.0000,break_time
288624,-0.1933,0.0731,0.0263,0.3699,1.1361,-9.7202,1.9015,6.9190,172.8220,0.0000,0.0000,0.0000,0.0000,0.0000,break_time
288740,-0.2294,0.0983,0.0465,0.3376,1.3384,-9.7400,1.9081,7.0093,172.7331,0.0000,0.0000,0.0000,0.0000,0.0000,break_time
288856,-0.1835,0.0699,0.0060,0.3735,1.1493,-9.7202,1.9358,6.9822,172.7518,0.0000,0.0000,0.0000,0.0000,0.0000,break_time
288972,-0.2022,0.0984,0.0181,0.2933,1.1666,-9.6615,1.9150,6.9723,172.7670,0.0000,0.0000,0.0000,0.0000,0.0000,break_time
289088,-0.1686,0.0537,-0.0271,0.2334,1.3306,-9.8926,1.8565,7.0421,172.7149,0.0000,0.0000,0.0000,0.0000,0.0000,break_time
289204,-0.2528,0.0774,0.0023,0.2891,1.3695,-9.7220,1.8395,7.1394,172.6250,0.0000,0.0000,0.0000,0.0000,0.0000,break_time
289320,-0.2489,0.0712,-0.0034,0.3478,1.2456,-9.7166,1.8589,7.1555,172.6045,0.0000,0.0000,0.0000,0.0000,0.0000,break_time
289436,-0.2818,0.0770,-0.0326,0.2610,1.0313,-9.7256,1.8260,7.0454,172.7195,0.0000,0.0000,0.0000,0.0000,0.0000,break_time
289552,-0.1520,0.0564,0.0863,0.3328,1.1493,-9.7208,1.8381,7.0148,172.7460,0.0000,0.0000,0.0000,0.0000,0.0000,break_time
289668,-0.2503,0.0878,-0.0548,0.2310,1.1199,-9.7400,1.7893,6.9691,172.8027,0.0000,0.0000,0.0000,0.0000,0.0000,break_time
289784,-0.2425,0.1050,0.0643,0.3101,1.2408,-9.6843,1.7923,7.0018,172.7702,0.0000,0.0000,0.0000,0.0000,0.0000,break_time
289900,-0.2553,0.0680,0.0116,0.1514,1.3157,-9.8926,1.6985,7.0601,172.7364,0.0000,0.0000,0.0000,0.0000,0.0000,break_time
290016,-0.2717,0.1078,-0.0161,0.3029,1.2630,-9.6867,1.7062,7.0964,172.6993,0.0000,0.0000,0.0000,0.0000,0.0000,break_time
290132,-0.1966,0.0654,0.0120,0.3669,1.2109,-9.7902,1.7488,7.0914,172.6940,0.0000,0.0000,0.0000,0.0000,0.0000,break_time
290248,-0.2886,0.1099,-0.0098,0.3077,1.1642,-9.7106,1.7541,7.0657,172.7177,0.0000,0.0000,0.0000,0.0000,0.0000,nothing
290364,-0.1763,0.0645,-0.0130,0.3514,1.0930,-9.7358,1.7840,6.9993,172.7747,0.0000,0.0000,0.0000,0.0000,0.0000,nothing
290480,-0.1505,0.0360,-0.1253,0.2664,1.1187,-9.7124,1.7618,6.9564,172.8218,0.0000,0.0000,0.0000,0.0000,0.0000,nothing
290596,-0.2378,0.0593,-0.0213,0.3107,1.4025,-9.7023,1.7672,7.0828,172.6979,0.0000,0.0000,0.0000,0.0000,0.0000,nothing
290712,-0.2746,0.1037,0.0189,0.3226,1.3456,-9.7064,1.7790,7.1632,172.6169,0.0000,0.0000,0.0000,0.0000,0.0000,nothing
290828,-0.2697,0.0747,-0.0485,0.2562,1.2426,-9.7364,1.7506,7.1740,172.6133,0.0000,0.0000,0.0000,0.0000,0.0000,nothing
290944,-0.1977,0.0577,0.0544,0.3202,1.0289,-9.7483,1.7627,7.0589,172.7222,0.0000,0.0000,0.0000,0.0000,0.0000,nothing
291060,-0.1067,0.0444,-0.0446,0.4555,1.0337,-9.7543,1.8524,6.9573,172.7980,0.0000,0.0000,0.0000,0.0000,0.0000,nothing
291176,-0.1857,0.0245,0.0710,0.2179,1.1702,-9.7477,1.7942,6.9460,172.8238,0.0000,0.0000,0.0000,0.0000,0.0000,nothing
291292,-0.1557,0.0507,0.0432,0.1652,1.1900,-9.7028,1.7119,6.9505,172.8397,0.0000,0.0000,0.0000,0.0000,0.0000,nothing
291408,-0.1521,0.0404,-0.0502,0.5621,1.1217,-9.7908,1.8680,6.9080,172.8415,0.0000,0.0000,0.0000,0.0000,0.0000,nothing
291524,-0.2958,0.1771,0.0977,0.1359,1.7215,-9.6185,1.7616,7.2305,172.5558,0.0000,0.0000,0.0000,0.0000,0.0000,nothing
291640,-0.2469,0.1039,-0.0296,0.2682,1.0649,-9.7878,1.7414,7.1278,172.6605,0.0000,0.0000,0.0000,0.0000,0.0000,nothing
291756,-0.1429,0.0183,0.0089,0.4920,1.0906,-9.7190,1.8550,7.0547,172.7031,0.0000,0.0000,0.0000,0.0000,0.0000,nothing
291872,-0.1082,0.1554,0.0121,0.4058,1.1744,-9.6789,1.9076,7.0405,172.7031,0.0000,0.0000,0.0000,0.0000,0.0000,nothing
291988,-0.2147,0.0705,0.0271,0.3160,1.2756,-9.7705,1.9005,7.0801,172.6667,0.0000,0.0000,0.0000,0.0000,0.0000,nothing
292104,-0.2956,0.0999,-0.0113,0.3933,1.1002,-9.6987,1.9411,7.0190,172.7150,0.0000,0.0000,0.0000,0.0000,0.0000,nothing
292220,-0.1645,0.0747,-0.0016,0.3424,1.0637,-9.7376,1.9471,6.9401,172.7893,0.0000,0.0000,0.0000,0.0000,0.0000,nothing
292336,-0.1846,0.0455,0.0450,0.1628,1.1523,-9.7322,1.8477,6.9213,172.8340,0.0000,0.0000,0.0000,0.0000,0.0000,nothing
292452,-0.1765,0.0830,0.0038,0.3819,1.2091,-9.7304,1.8860,6.9370,172.8087,0.0000,0.0000,0.0000,0.0000,0.0000,nothing
292568,-0.1966,0.0720,0.0682,0.2676,1.3258,-9.7040,1.8539,7.0210,172.7360,0.0000,0.0000,0.0000,0.0000,0.0000,nothing
292684,-0.2375,0.0870,-0.0778,0.3244,1.2785,-9.7190,1.8581,7.0679,172.6895,0.0000,0.0000,0.0000,0.0000,0.0000,nothing
292800,-0.1861,0.0592,0.1174,0.3723,1.1918,-9.6131,1.8920,7.0673,172.6813,0.0000,0.0000,0.0000,0.0000,0.0000,nothing
292916,-0.2020,0.0499,-0.0247,0.3364,1.2558,-9.7507,1.8988,7.0941,172.6536,0.0000,0.0000,0.0000,0.0000,0.0000,nothing
293032,-0.1981,0.0931,0.0044,0.3705,1.2025,-9.7011,1.9260,7.0908,172.6497,0.0000,0.0000,0.0000,0.0000,0.0000,nothing
293148,-0.2245,0.0791,-0.0138,0.2412,1.1588,-9.7591,1.8738,7.0587,172.6944,0.0000,0.0000,0.0000,0.0000,0.0000,nothing
293264,-0.2268,0.0844,-0.0639,0.3502,1.2145,-9.7346,1.8909,7.0635,172.6853,0.0000,0.0000,0.0000,0.0000,0.0000,nothing
293380,-0.2578,0.0570,0.0650,0.2777,1.2037,-9.7388,1.8639,7.0615,172.6942,0.0000,0.0000,0.0000,0.0000,0.0000,nothing
293496,-0.2628,0.0810,0.0544,0.3035,1.2582,-9.6981,1.8553,7.0941,172.6649,0.0000,0.0000,0.0000,0.0000,0.0000,nothing
293612,-0.1930,0.0731,-0.0179,0.3382,1.1666,-9.7430,1.8671,7.0671,172.6880,0.0000,0.0000,0.0000,0.0000,0.0000,nothing
293728,-0.2180,0.1061,0.0079,0.3113,1.2133,-9.6975,1.8629,7.0732,172.6832,0.0000,0.0000,0.0000,0.0000,0.0000,nothing
293844,-0.2436,0.0607,-0.0575,0.2867,1.1265,-9.7675,1.8435,7.0233,172.7364,0.0000,0.0000,0.0000,0.0000,0.0000,nothing
293960,-0.2641,0.0526,0.0067,0.2107,1.1918,-9.7603,1.7818,7.0170,172.7581,0.0000,0.0000,0.0000,0.0000,0.0000,nothing
294076,-0.1606,0.1009,0.0074,0.3873,1.2187,-9.6813,1.8307,7.0321,172.7311,0.0000,0.0000,0.0000,0.0000,0.0000,nothing
294192,-0.1872,0.0586,0.0678,0.2795,1.1355,-9.8291,1.8093,6.9873,172.7800,0.0000,0.0000,0.0000,0.0000,0.0000,nothing
294308,-0.1643,0.0706,-0.0034,0.3172,1.2025,-9.7250,1.8138,6.9931,172.7733,0.0000,0.0000,0.0000,0.0000,0.0000,nothing
294424,-0.1449,0.0333,0.0154,0.3059,1.0756,-9.7525,1.8110,6.9228,172.8420,0.0000,0.0000,0.0000,0.0000,0.0000,nothing
294540,-0.1879,0.0609,0.0166,0.3591,1.2229,-9.7843,1.8386,6.9426,172.8158,0.0000,0.0000,0.0000,0.0000,0.0000,nothing
294656,-0.1917,0.1002,-0.0329,0.3358,1.1822,-9.6951,1.8516,6.9431,172.8119,0.0000,0.0000,0.0000,0.0000,0.0000,nothing
294772,-0.2468,0.0800,-0.0324,0.3238,1.1900,-9.7489,1.8553,6.9443,172.8097,0.0000,0.0000,0.0000,0.0000,0.0000,nothing
294888,-0.1123,0.0789,0.0348,0.2993,1.2013,-9.7238,1.8447,6.9539,172.8033,0.0000,0.0000,0.0000,0.0000,0.0000,nothing
295004,-0.2266,0.0931,0.0079,0.4022,1.3133,-9.7118,1.8953,7.0279,172.7185,0.0000,0.0000,0.0000,0.0000,0.0000,nothing
295120,-0.1994,0.0765,0.0473,0.3645,1.1965,-9.7292,1.9187,7.0258,172.7144,0.0000,0.0000,0.0000,0.0000,0.0000,nothing
295236,-0.2039,0.0795,-0.0530,0.2520,1.2402,-9.6933,1.8747,7.0520,172.7006,0.0000,0.0000,0.0000,0.0000,0.0000,nothing
295352,-0.2228,0.0833,-0.0286,0.4717,1.3157,-9.7076,1.9629,7.1178,172.6138,0.0000,0.0000,0.0000,0.0000,0.0000,nothing
295468,-0.2784,0.0402,0.0397,0.2604,1.2995,-9.7166,1.9188,7.1675,172.5775,0.0000,0.0000,0.0000,0.0000,0.0000,nothing
295584,-0.2244,0.0957,0.0375,0.3316,1.2277,-9.7076,1.9210,7.1711,172.5734,0.0000,0.0000,0.0000,0.0000,0.0000,nothing
295700,-0.1456,0.0487,-0.0551,0.4052,1.1517,-9.7100,1.9661,7.1299,172.6013,0.0000,0.0000,0.0000,0.0000,0.0000,nothing
295816,-0.1712,0.0624,0.0582,0.1999,1.1768,-9.7346,1.8863,7.1061,172.6453,0.0000,0.0000,0.0000,0.0000,0.0000,nothing
295932,-0.2215,0.0645,0.0026,0.3496,1.3067,-9.7771,1.9007,7.1566,172.5928,0.0000,0.0000,0.0000,0.0000,0.0000,nothing
296048,-0.2804,0.0957,0.0702,0.3262,1.3288,-9.7328,1.9009,7.2180,172.5333,0.0000,0.0000,0.0000,0.0000,0.0000,nothing
296164,-0.1960,0.0684,0.0162,0.3544,1.2301,-9.7208,1.9179,7.2169,172.5300,0.0000,0.0000,0.0000,0.0000,0.0000,nothing
296280,-0.2268,0.0622,-0.0633,0.3550,1.2785,-9.6514,1.9348,7.2492,172.4944,0.0000,0.0000,0.0000,0.0000,0.0000,nothing
296396,-0.2333,0.0706,0.0101,0.3448,1.2947,-9.6861,1.9434,7.2850,172.4575,0.0000,0.0000,0.0000,0.0000,0.0000,nothing
296512,-0.2473,0.0506,-0.0181,0.3113,1.0110,-9.7639,1.9307,7.1472,172.5940,0.0000,0.0000,0.0000,0.0000,0.0000,nothing
296628,-0.1284,0.0882,-0.0206,0.2346,1.2528,-9.7717,1.8738,7.1629,172.5936,0.0000,0.0000,0.0000,0.0000,0.0000,nothing
296744,-0.1869,0.0630,-0.0353,0.2741,1.3546,-9.7950,1.8450,7.2342,172.5318,0.0000,0.0000,0.0000,0.0000,0.0000,nothing
296860,-0.2742,0.1003,0.0714,0.3609,1.3216,-9.7244,1.8712,7.2843,172.4767,0.0000,0.0000,0.0000,0.0000,0.0000,nothing
296976,-0.2721,0.1046,0.0027,0.3298,1.1953,-9.7507,1.8763,7.2543,172.5044,0.0000,0.0000,0.0000,0.0000,0.0000,nothing
297092,-0.2416,0.0868,0.0611,0.2753,1.1894,-9.7412,1.8494,7.2247,172.5399,0.0000,0.0000,0.0000,0.0000,0.0000,nothing
297208,-0.2099,0.0881,-0.0161,0.3484,1.2474,-9.7130,1.8682,7.2336,172.5265,0.0000,0.0000,0.0000,0.0000,0.0000,nothing
297324,-0.2177,0.0698,0.0083,0.2969,1.1786,-9.7058,1.8553,7.2024,172.5600,0.0000,0.0000,0.0000,0.0000,0.0000,nothing
297440,-0.2241,0.0688,0.0067,0.3633,1.2774,-9.7346,1.8818,7.2292,172.5273,0.0000,0.0000,0.0000,0.0000,0.0000,nothing
297556,-0.2214,0.0913,-0.0050,0.3011,1.1636,-9.7076,1.8700,7.1896,172.5687,0.0000,0.0000,0.0000,0.0000,0.0000,nothing
297672,-0.1774,0.0716,-0.0007,0.4040,1.2331,-9.7316,1.9189,7.1922,172.5536,0.0000,0.0000,0.0000,0.0000,0.0000,nothing
297788,-0.1474,0.0605,-0.0049,0.3322,1.1594,-9.7675,1.9205,7.1494,172.5945,0.0000,0.0000,0.0000,0.0000,0.0000,nothing
297904,-0.2207,0.0908,-0.0065,0.2305,1.2211,-9.6957,1.8637,7.1521,172.6066,0.0000,0.0000,0.0000,0.0000,0.0000,nothing
298020,-0.1630,0.0598,0.0543,0.2759,1.1409,-9.7328,1.8387,7.1053,172.6583,0.0000,0.0000,0.0000,0.0000,0.0000,nothing
298136,-0.1994,0.0739,-0.0010,0.2927,1.1840,-9.7531,1.8254,7.0865,172.6798,0.0000,0.0000,0.0000,0.0000,0.0000,nothing
298252,-0.1853,0.0515,0.0744,0.3077,1.2139,-9.7358,1.8225,7.0883,172.6789,0.0000,0.0000,0.0000,0.0000,0.0000,nothing
298368,-0.2448,0.0495,-0.0259,0.3035,1.2720,-9.6807,1.8183,7.1274,172.6419,0.0000,0.0000,0.0000,0.0000,0.0000,nothing
298484,-0.2004,0.0483,-0.0030,0.3807,1.2558,-9.6837,1.8596,7.1530,172.6068,0.0000,0.0000,0.0000,0.0000,0.0000,nothing
298600,-0.2278,0.0615,-0.0380,0.2472,1.1235,-9.7525,1.8178,7.0946,172.6739,0.0000,0.0000,0.0000,0.0000,0.0000,nothing
298716,-0.1813,0.0769,0.0128,0.3119,1.3570,-9.6915,1.8186,7.1816,172.5893,0.0000,0.0000,0.0000,0.0000,0.0000,nothing
298832,-0.2339,0.0878,0.0922,0.3759,1.1953,-9.6957,1.8570,7.1658,172.5950,0.0000,0.0000,0.0000,0.0000,0.0000,nothing
298948,-0.1933,0.0680,0.0033,0.3747,1.2756,-9.6987,1.8906,7.1979,172.5554,0.0000,0.0000,0.0000,0.0000,0.0000,nothing
299064,-0.1554,0.0506,0.0056,0.2418,1.1810,-9.7154,1.8431,7.1710,172.5935,0.0000,0.0000,0.0000,0.0000,0.0000,nothing
299180,-0.1945,0.0543,-0.0266,0.2867,1.0750,-9.6987,1.8272,7.0865,172.6794,0.0000,0.0000,0.0000,0.0000,0.0000,nothing
299296,-0.1434,0.0721,-0.0140,0.2861,1.2295,-9.7328,1.8115,7.0975,172.6727,0.0000,0.0000,0.0000,0.0000,0.0000,nothing
299412,-0.2410,0.0667,-0.0065,0.3017,1.1792,-9.7046,1.8071,7.0802,172.6905,0.0000,0.0000,0.0000,0.0000,0.0000,nothing
299528,-0.1994,0.0675,-0.0127,0.3089,1.2558,-9.7711,1.8060,7.1043,172.6674,0.0000,0.0000,0.0000,0.0000,0.0000,nothing
299644,-0.1933,0.0904,-0.0063,0.3753,1.1385,-9.6831,1.8457,7.0642,172.6963,0.0000,0.0000,0.0000,0.0000,0.0000,nothing
299760,-0.1744,0.0672,-0.0018,0.3550,1.2384,-9.7442,1.8681,7.0816,172.6736,0.0000,0.0000,0.0000,0.0000,0.0000,nothing
299876,-0.2063,0.0568,0.0132,0.2293,1.2109,-9.7130,1.8155,7.0839,172.6848,0.0000,0.0000,0.0000,0.0000,0.0000,nothing
299992,-0.1111,0.0465,-0.0187,0.5160,1.2001,-9.6807,1.9364,7.0814,172.6560,0.0000,0.0000,0.0000,0.0000,0.0000,nothing
300108,-0.4759,0.1286,0.0703,0.0347,1.7526,-9.4395,1.7669,7.4191,172.3711,0.0000,0.0000,0.0000,0.0000,0.0000,หนึ่ง
300224,-0.3390,0.0953,0.0251,0.0275,1.3199,-9.6651,1.6067,7.4550,172.3719,0.0000,0.0000,0.0000,0.0000,0.0000,หนึ่ง
300340,-0.1810,0.0945,0.0352,0.2388,0.9194,-9.6987,1.5866,7.2514,172.5752,0.0000,0.0000,0.0000,0.0000,0.0000,หนึ่ง
300456,-0.2588,0.0427,-0.0397,0.3358,1.2253,-9.7555,1.6238,7.2417,172.5766,0.0000,0.0000,0.0000,0.0000,0.0000,หนึ่ง
300572,-0.2448,0.0590,0.0224,0.2370,1.1223,-9.7723,1.5993,7.1721,172.6500,0.0000,0.0000,0.0000,0.0000,0.0000,หนึ่ง
300688,-0.1958,0.0654,-0.0236,0.3071,1.1295,-9.7376,1.6188,7.1160,172.7003,0.0000,0.0000,0.0000,0.0000,0.0000,หนึ่ง
300804,-0.1370,0.0799,0.0067,0.3981,1.1834,-9.7465,1.6894,7.0961,172.7036,0.0000,0.0000,0.0000,0.0000,0.0000,หนึ่ง
300920,-0.2030,0.0560,0.0027,0.1868,1.2157,-9.7406,1.6293,7.0978,172.7157,0.0000,0.0000,0.0000,0.0000,0.0000,หนึ่ง
301036,-0.2120,0.0498,-0.0130,0.4100,1.2223,-9.7394,1.7058,7.1028,172.6932,0.0000,0.0000,0.0000,0.0000,0.0000,หนึ่ง
301152,-0.1932,0.0667,-0.0532,0.2939,1.1415,-9.7310,1.7070,7.0612,172.7333,0.0000,0.0000,0.0000,0.0000,0.0000,หนึ่ง
301268,-0.2183,0.0638,-0.0305,0.3095,1.3618,-9.7094,1.7171,7.1532,172.6415,0.0000,0.0000,0.0000,0.0000,0.0000,หนึ่ง
301384,-0.2222,0.0570,0.0204,0.2951,1.2253,-9.7310,1.7178,7.1552,172.6394,0.0000,0.0000,0.0000,0.0000,0.0000,หนึ่ง
301500,-0.1884,0.0997,-0.0194,0.3939,1.2803,-9.6933,1.7766,7.1915,172.5900,0.0000,0.0000,0.0000,0.0000,0.0000,หนึ่ง
301616,-0.1524,0.0469,-0.0421,0.3280,1.1738,-9.7370,1.7905,7.1593,172.6179,0.0000,0.0000,0.0000,0.0000,0.0000,หนึ่ง
301732,-0.1971,0.0818,0.0101,0.2753,1.3492,-9.7076,1.7724,7.2344,172.5494,0.0000,0.0000,0.0000,0.0000,0.0000,หนึ่ง
301848,-0.1542,0.0393,0.0536,0.5812,0.9936,-9.6867,1.9361,7.0964,172.6416,0.0000,0.0000,0.0000,0.0000,0.0000,หนึ่ง
301964,-0.2558,0.2665,0.0027,0.5447,1.9448,-9.6310,2.0608,7.5283,172.1916,0.0000,0.0000,0.0000,0.0000,0.0000,break_time
302080,-0.2579,0.1361,-0.0026,0.3759,1.2887,-9.6807,2.0752,7.5332,172.1830,0.0000,0.0000,0.0000,0.0000,0.0000,break_time
302196,-0.2593,0.0972,0.0537,0.3095,1.2295,-9.7268,2.0484,7.4998,172.2224,0.0000,0.0000,0.0000,0.0000,0.0000,break_time
302312,-0.2461,0.0597,-0.0423,0.3496,1.1493,-9.7819,2.0468,7.4191,172.3007,0.0000,0.0000,0.0000,0.0000,0.0000,break_time
302428,-0.2247,0.0479,0.0038,0.2179,1.1433,-9.7771,1.9686,7.3437,172.3942,0.0000,0.0000,0.0000,0.0000,0.0000,break_time
302544,-0.1985,0.0581,0.0419,0.3364,1.3049,-9.7064,1.9685,7.3745,172.3644,0.0000,0.0000,0.0000,0.0000,0.0000,break_time
302660,-0.2206,0.0450,0.0563,0.3232,1.1738,-9.7088,1.9610,7.3262,172.4131,0.0000,0.0000,0.0000,0.0000,0.0000,break_time
302776,-0.2132,0.0758,-0.0049,0.3597,1.2708,-9.7076,1.9753,7.3388,172.3972,0.0000,0.0000,0.0000,0.0000,0.0000,break_time
302892,-0.2402,0.0525,-0.0179,0.3143,1.0972,-9.7759,1.9607,7.2446,172.4920,0.0000,0.0000,0.0000,0.0000,0.0000,break_time
303008,-0.1414,0.0793,0.0324,0.3831,1.2169,-9.6897,1.9892,7.2355,172.4932,0.0000,0.0000,0.0000,0.0000,0.0000,break_time
303124,-0.1700,0.0494,0.0132,0.3137,1.3055,-9.6687,1.9745,7.2803,172.4539,0.0000,0.0000,0.0000,0.0000,0.0000,break_time
303240,-0.2605,0.0937,0.0742,0.3550,1.3378,-9.7358,1.9839,7.3344,172.3992,0.0000,0.0000,0.0000,0.0000,0.0000,break_time
303356,-0.2660,0.0815,-0.0215,0.3083,1.1181,-9.7884,1.9647,7.2519,172.4840,0.0000,0.0000,0.0000,0.0000,0.0000,break_time
303472,-0.2313,0.0642,0.0185,0.2712,1.2055,-9.7166,1.9269,7.2337,172.5114,0.0000,0.0000,0.0000,0.0000,0.0000,break_time
303588,-0.2162,0.0468,-0.0371,0.2718,1.1816,-9.7908,1.8918,7.1980,172.5550,0.0000,0.0000,0.0000,0.0000,0.0000,break_time
303704,-0.2664,0.0590,-0.0225,0.2843,1.2115,-9.7124,1.8691,7.1889,172.5696,0.0000,0.0000,0.0000,0.0000,0.0000,break_time
303820,-0.2239,0.0380,0.1006,0.3340,1.3426,-9.7400,1.8768,7.2546,172.5040,0.0000,0.0000,0.0000,0.0000,0.0000,break_time
303936,-0.2470,0.1091,-0.0511,0.3178,1.2343,-9.6879,1.8755,7.2548,172.5042,0.0000,0.0000,0.0000,0.0000,0.0000,break_time
304052,-0.1909,0.0841,-0.0031,0.3765,1.2031,-9.7651,1.9072,7.2311,172.5190,0.0000,0.0000,0.0000,0.0000,0.0000,break_time
304168,-0.1926,0.0603,0.0300,0.2933,1.1900,-9.7142,1.8882,7.2061,172.5481,0.0000,0.0000,0.0000,0.0000,0.0000,break_time
304284,-0.2147,0.0559,-0.0592,0.3957,1.3366,-9.7046,1.9306,7.2690,172.4763,0.0000,0.0000,0.0000,0.0000,0.0000,break_time
304400,-0.2012,0.0669,-0.0245,0.2741,1.1517,-9.7992,1.8966,7.2119,172.5404,0.0000,0.0000,0.0000,0.0000,0.0000,break_time
304516,-0.1393,0.0698,-0.0082,0.3777,1.2253,-9.7076,1.9279,7.2095,172.5345,0.0000,0.0000,0.0000,0.0000,0.0000,break_time
304632,-0.1681,0.0412,-0.0304,0.3232,1.0786,-9.7525,1.9238,7.1193,172.6227,0.0000,0.0000,0.0000,0.0000,0.0000,break_time
304748,-0.2185,0.0600,0.0035,0.2891,1.2085,-9.7866,1.8992,7.1110,172.6372,0.0000,0.0000,0.0000,0.0000,0.0000,break_time
304864,-0.2008,0.0787,-0.0158,0.2957,1.2025,-9.7316,1.8821,7.1040,172.6484,0.0000,0.0000,0.0000,0.0000,0.0000,nothing
304980,-0.2652,0.0772,0.0597,0.2999,1.2265,-9.7262,1.8691,7.1120,172.6440,0.0000,0.0000,0.0000,0.0000,0.0000,nothing
305096,-0.1356,0.0522,-0.0165,0.3597,1.1786,-9.7657,1.8917,7.0884,172.6610,0.0000,0.0000,0.0000,0.0000,0.0000,nothing
305212,-0.2123,0.0627,-0.0533,0.3244,1.1505,-9.7017,1.8927,7.0556,172.6924,0.0000,0.0000,0.0000,0.0000,0.0000,nothing
305328,-0.1951,0.0562,0.0421,0.2969,1.1882,-9.7028,1.8774,7.0479,172.7039,0.0000,0.0000,0.0000,0.0000,0.0000,nothing
305444,-0.1941,0.0533,-0.0473,0.3047,1.1744,-9.7789,1.8668,7.0275,172.7263,0.0000,0.0000,0.0000,0.0000,0.0000,nothing
305560,-0.1858,0.0375,0.0304,0.3921,1.3282,-9.7184,1.9091,7.1024,172.6429,0.0000,0.0000,0.0000,0.0000,0.0000,nothing
305676,-0.2034,-0.0038,0.0056,0.1909,1.5563,-9.7735,1.8282,7.2983,172.4738,0.0000,0.0000,0.0000,0.0000,0.0000,สอง
305792,-0.1733,0.0947,0.0296,0.5872,1.1870,-9.9076,1.9846,7.2499,172.4805,0.0000,0.0000,0.0000,0.0000,0.0000,สอง
305908,-0.1478,0.0344,0.0119,0.4160,1.0128,-9.8124,2.0278,7.1133,172.6004,0.0000,0.0000,0.0000,0.0000,0.0000,สอง
306024,-0.1373,0.0575,-0.0346,0.3262,1.2450,-9.7028,2.0161,7.1327,172.5850,0.0000,0.0000,0.0000,0.0000,0.0000,สอง
306140,-0.2446,0.0750,0.0331,0.2538,1.4192,-9.8932,1.9591,7.2370,172.4997,0.0000,0.0000,0.0000,0.0000,0.0000,สอง
306256,-0.2692,0.0931,0.0046,0.3101,1.2702,-9.7064,1.9447,7.2584,172.4829,0.0000,0.0000,0.0000,0.0000,0.0000,สอง
306372,-0.2245,0.0661,-0.0068,0.2945,1.2331,-9.7609,1.9217,7.2522,172.4949,0.0000,0.0000,0.0000,0.0000,0.0000,สอง
306488,-0.2611,0.0810,-0.0346,0.2460,1.1259,-9.6645,1.8749,7.1919,172.5652,0.0000,0.0000,0.0000,0.0000,0.0000,สอง
306604,-0.2341,0.0348,0.0200,0.0874,1.1995,-9.8794,1.7362,7.1649,172.6256,0.0000,0.0000,0.0000,0.0000,0.0000,break_time
306720,-0.2376,0.0943,0.0213,0.4064,1.0714,-9.6520,1.8015,7.0823,172.6899,0.0000,0.0000,0.0000,0.0000,0.0000,break_time
306836,-0.1716,0.0548,-0.0350,0.3735,1.2576,-9.6915,1.8400,7.1127,172.6507,0.0000,0.0000,0.0000,0.0000,0.0000,break_time
306952,-0.1727,0.1182,0.0206,0.1945,1.0714,-9.7813,1.7692,7.0264,172.7521,0.0000,0.0000,0.0000,0.0000,0.0000,break_time
307068,-0.1148,0.0487,-0.0555,0.3939,1.1570,-9.7196,1.8226,7.0022,172.7622,0.0000,0.0000,0.0000,0.0000,0.0000,break_time
307184,-0.1077,0.0671,-0.0534,0.3514,1.1439,-9.7244,1.8458,6.9725,172.7850,0.0000,0.0000,0.0000,0.0000,0.0000,break_time
307300,-0.2346,0.1032,-0.0115,0.3232,1.3965,-9.6921,1.8503,7.0944,172.6659,0.0000,0.0000,0.0000,0.0000,0.0000,break_time
307416,-0.2703,0.0743,0.0185,0.2520,1.3623,-9.7555,1.8117,7.1800,172.5927,0.0000,0.0000,0.0000,0.0000,0.0000,break_time
307532,-0.2833,0.1130,0.0507,0.2927,1.2349,-9.7136,1.8018,7.1861,172.5891,0.0000,0.0000,0.0000,0.0000,0.0000,break_time
307648,-0.1643,0.0590,-0.0003,0.3119,1.1253,-9.7310,1.8040,7.1269,172.6460,0.0000,0.0000,0.0000,0.0000,0.0000,break_time
307764,-0.1798,0.0743,0.0155,0.3244,1.2917,-9.6855,1.8137,7.1733,172.5986,0.0000,0.0000,0.0000,0.0000,0.0000,break_time
307880,-0.2143,0.0937,0.0470,0.3083,1.2301,-9.7184,1.8126,7.1770,172.5954,0.0000,0.0000,0.0000,0.0000,0.0000,break_time
307996,-0.2879,0.1047,0.0241,0.3113,1.2295,-9.7483,1.8127,7.1777,172.5946,0.0000,0.0000,0.0000,0.0000,0.0000,break_time
308112,-0.1891,0.0751,-0.0104,0.2688,1.2103,-9.7172,1.7887,7.1697,172.6083,0.0000,0.0000,0.0000,0.0000,0.0000,break_time
308228,-0.2224,0.0739,-0.0026,0.3286,1.1481,-9.6867,1.8027,7.1284,172.6448,0.0000,0.0000,0.0000,0.0000,0.0000,break_time
308344,-0.2155,0.0334,0.0035,0.2861,1.2690,-9.7346,1.7894,7.1580,172.6194,0.0000,0.0000,0.0000,0.0000,0.0000,break_time
308460,-0.2093,0.0826,-0.0284,0.3436,1.1780,-9.7046,1.8117,7.1340,172.6373,0.0000,0.0000,0.0000,0.0000,0.0000,break_time
308576,-0.2286,0.0567,0.0259,0.3370,1.2917,-9.6993,1.8278,7.1786,172.5900,0.0000,0.0000,0.0000,0.0000,0.0000,break_time
308692,-0.2191,0.0631,0.0057,0.2885,1.2001,-9.7346,1.8135,7.1633,172.6084,0.0000,0.0000,0.0000,0.0000,0.0000,break_time
308808,-0.1962,0.0896,0.0164,0.3675,1.1936,-9.7364,1.8467,7.1453,172.6175,0.0000,0.0000,0.0000,0.0000,0.0000,break_time
308924,-0.1943,0.1032,-0.0480,0.3436,1.2462,-9.7400,1.8625,7.1595,172.5997,0.0000,0.0000,0.0000,0.0000,0.0000,break_time
309040,-0.2053,0.0863,-0.0110,0.2023,1.2049,-9.7418,1.7942,7.1485,172.6274,0.0000,0.0000,0.0000,0.0000,0.0000,break_time
309156,-0.1430,0.0479,0.0309,0.3945,1.1965,-9.7286,1.8453,7.1343,172.6285,0.0000,0.0000,0.0000,0.0000,0.0000,break_time
309272,-0.1761,0.0893,0.0262,0.3723,1.2929,-9.7112,1.8784,7.1787,172.5771,0.0000,0.0000,0.0000,0.0000,0.0000,break_time
309388,-0.1545,0.0642,-0.0172,0.2927,1.1457,-9.6705,1.8628,7.1364,172.6220,0.0000,0.0000,0.0000,0.0000,0.0000,break_time
309504,-0.2094,0.0680,0.0363,0.3292,1.2923,-9.7442,1.8684,7.1779,172.5804,0.0000,0.0000,0.0000,0.0000,0.0000,break_time
309620,-0.1869,0.0840,-0.0221,0.3011,1.2115,-9.7322,1.8574,7.1694,172.5915,0.0000,0.0000,0.0000,0.0000,0.0000,nothing
309736,-0.2116,0.0509,0.0225,0.2903,1.2247,-9.7627,1.8406,7.1671,172.5979,0.0000,0.0000,0.0000,0.0000,0.0000,nothing
309852,-0.1970,0.0947,0.0594,0.3603,1.1834,-9.7064,1.8675,7.1451,172.6124,0.0000,0.0000,0.0000,0.0000,0.0000,nothing
309968,-0.1947,0.0652,-0.0256,0.2700,1.2486,-9.7154,1.8386,7.1627,172.6027,0.0000,0.0000,0.0000,0.0000,0.0000,nothing
310084,-0.2307,0.0653,-0.0173,0.2909,1.2121,-9.7184,1.8249,7.1570,172.6116,0.0000,0.0000,0.0000,0.0000,0.0000,nothing
310200,-0.2221,0.0799,0.0489,0.3089,1.2235,-9.7376,1.8227,7.1571,172.6121,0.0000,0.0000,0.0000,0.0000,0.0000,nothing
310316,-0.1939,0.0766,0.0267,0.4334,1.1139,-9.7340,1.8937,7.0937,172.6554,0.0000,0.0000,0.0000,0.0000,0.0000,nothing
310432,-0.0972,0.0986,-0.0128,0.5309,1.1660,-9.7286,2.0145,7.0669,172.6488,0.0000,0.0000,0.0000,0.0000,0.0000,สาม
310548,-0.2200,0.0425,0.0799,0.1784,1.3695,-9.7609,1.9163,7.1593,172.5861,0.0000,0.0000,0.0000,0.0000,0.0000,สาม
310664,-0.2519,0.0547,0.0214,0.4100,1.2091,-9.7376,1.9640,7.1506,172.5819,0.0000,0.0000,0.0000,0.0000,0.0000,สาม
310780,-0.2301,0.1261,-0.0170,0.2921,1.2720,-9.7136,1.9384,7.1812,172.5592,0.0000,0.0000,0.0000,0.0000,0.0000,สาม
310896,-0.2772,0.0987,0.0498,0.3113,1.3647,-9.7962,1.9247,7.2563,172.4901,0.0000,0.0000,0.0000,0.0000,0.0000,สาม
311012,-0.2037,0.0968,-0.0079,0.3298,1.1768,-9.6771,1.9260,7.2238,172.5211,0.0000,0.0000,0.0000,0.0000,0.0000,สาม
311128,-0.1883,0.0399,-0.0168,0.2682,1.1421,-9.7256,1.8904,7.1711,172.5814,0.0000,0.0000,0.0000,0.0000,0.0000,สาม
311244,-0.2109,0.0607,0.0121,0.2616,1.0762,-9.7178,1.8547,7.0859,172.6729,0.0000,0.0000,0.0000,0.0000,0.0000,สาม
311360,-0.1819,0.0609,0.0136,0.2598,1.2774,-9.8531,1.8186,7.1161,172.6528,0.0000,0.0000,0.0000,0.0000,0.0000,สาม
311476,-0.2360,0.0808,0.0102,0.3388,1.2785,-9.7118,1.8348,7.1540,172.6121,0.0000,0.0000,0.0000,0.0000,0.0000,สาม
311592,-0.2373,0.0588,0.0057,0.4561,1.3294,-9.7340,1.9172,7.2156,172.5314,0.0000,0.0000,0.0000,0.0000,0.0000,สาม
311708,-0.3579,0.3171,0.0540,0.4310,1.8370,-9.6274,1.9776,7.5728,172.1703,0.0000,0.0000,0.0000,0.0000,0.0000,break_time
311824,-0.3504,0.2172,0.0594,0.3202,1.0391,-9.5927,1.9701,7.4355,172.3050,0.0000,0.0000,0.0000,0.0000,0.0000,break_time
311940,-0.1850,0.0673,0.0119,0.3250,0.9739,-9.8058,1.9620,7.2579,172.4788,0.0000,0.0000,0.0000,0.0000,0.0000,break_time
312056,-0.1166,0.0252,-0.0320,0.2412,1.2067,-9.7364,1.9066,7.2385,172.5120,0.0000,0.0000,0.0000,0.0000,0.0000,break_time
312172,-0.1654,0.0252,-0.0016,0.3202,1.2768,-9.7807,1.9019,7.2581,172.4943,0.0000,0.0000,0.0000,0.0000,0.0000,break_time
312288,-0.2169,0.0823,0.0286,0.3190,1.3169,-9.7310,1.8978,7.3026,172.4523,0.0000,0.0000,0.0000,0.0000,0.0000,break_time
312404,-0.2484,0.0439,-0.0158,0.3520,1.2552,-9.7190,1.9137,7.3077,172.4432,0.0000,0.0000,0.0000,0.0000,0.0000,break_time
312520,-0.3516,0.1149,0.0145,0.3190,1.3755,-9.7513,1.9079,7.3797,172.3750,0.0000,0.0000,0.0000,0.0000,0.0000,break_time
312636,-0.3196,0.0998,0.0676,0.2478,1.1882,-9.7561,1.8615,7.3358,172.4291,0.0000,0.0000,0.0000,0.0000,0.0000,break_time
312752,-0.2024,0.0862,-0.0001,0.2490,1.1511,-9.7310,1.8210,7.2768,172.4965,0.0000,0.0000,0.0000,0.0000,0.0000,break_time
312868,-0.1264,0.0476,0.0108,0.3490,1.1576,-9.7136,1.8431,7.2284,172.5379,0.0000,0.0000,0.0000,0.0000,0.0000,break_time
312984,-0.1527,0.0499,0.0076,0.2735,1.1870,-9.8208,1.8170,7.1942,172.5775,0.0000,0.0000,0.0000,0.0000,0.0000,break_time
313100,-0.1809,0.0616,-0.0104,0.3573,1.2462,-9.7100,1.8443,7.2056,172.5596,0.0000,0.0000,0.0000,0.0000,0.0000,break_time
313216,-0.2588,0.0766,0.0594,0.2801,1.1475,-9.7340,1.8236,7.1572,172.6118,0.0000,0.0000,0.0000,0.0000,0.0000,break_time
313332,-0.1967,0.0804,-0.0819,0.2496,1.1804,-9.7400,1.7870,7.1323,172.6450,0.0000,0.0000,0.0000,0.0000,0.0000,break_time
313448,-0.0991,0.0435,0.0071,0.2993,1.0864,-9.7358,1.7833,7.0556,172.7203,0.0000,0.0000,0.0000,0.0000,0.0000,break_time
313564,-0.1119,0.0499,0.0210,0.4310,1.3210,-9.7160,1.8566,7.1236,172.6360,0.0000,0.0000,0.0000,0.0000,0.0000,break_time
313680,-0.2228,0.0720,0.0204,0.2885,1.1983,-9.7238,1.8397,7.1135,172.6501,0.0000,0.0000,0.0000,0.0000,0.0000,break_time
313796,-0.2496,0.0645,0.0203,0.3035,1.3546,-9.7537,1.8322,7.1927,172.5752,0.0000,0.0000,0.0000,0.0000,0.0000,break_time
313912,-0.2574,0.0856,0.0464,0.2137,1.2343,-9.7400,1.7737,7.1955,172.5869,0.0000,0.0000,0.0000,0.0000,0.0000,break_time
314028,-0.2418,0.0877,0.0984,0.2406,1.2474,-9.7465,1.7366,7.2051,172.5864,0.0000,0.0000,0.0000,0.0000,0.0000,break_time
314144,-0.2264,0.0874,-0.0277,0.3334,1.2199,-9.6921,1.7583,7.2016,172.5847,0.0000,0.0000,0.0000,0.0000,0.0000,break_time
314260,-0.2038,0.0759,0.1003,0.3442,1.2863,-9.7316,1.7833,7.2339,172.5472,0.0000,0.0000,0.0000,0.0000,0.0000,break_time
314376,-0.2662,0.1013,0.0506,0.3891,1.2510,-9.6849,1.8329,7.2460,172.5234,0.0000,0.0000,0.0000,0.0000,0.0000,break_time
314492,-0.2365,0.0864,0.0224,0.2849,1.1648,-9.7364,1.8161,7.2033,172.5689,0.0000,0.0000,0.0000,0.0000,0.0000,break_time
314608,-0.2511,0.0815,0.0117,0.3334,1.1816,-9.7322,1.8292,7.1748,172.5933,0.0000,0.0000,0.0000,0.0000,0.0000,break_time
314724,-0.2203,0.0728,0.0479,0.1317,1.2115,-9.7394,1.7231,7.1665,172.6272,0.0000,0.0000,0.0000,0.0000,0.0000,nothing
314840,-0.2027,0.0695,-0.0429,0.4130,1.1104,-9.7238,1.7924,7.1008,172.6742,0.0000,0.0000,0.0000,0.0000,0.0000,nothing
314956,-0.1914,0.0742,-0.0374,0.3125,1.1894,-9.7298,1.7957,7.0873,172.6865,0.0000,0.0000,0.0000,0.0000,0.0000,nothing
315072,-0.1722,0.0679,0.0311,0.1969,1.1888,-9.7106,1.7316,7.0764,172.7127,0.0000,0.0000,0.0000,0.0000,0.0000,nothing
315188,-0.1785,0.0440,0.0414,0.4669,1.2217,-9.7406,1.8309,7.0830,172.6819,0.0000,0.0000,0.0000,0.0000,0.0000,nothing
315304,-0.1855,0.0305,0.0361,0.2783,1.2229,-9.7424,1.8102,7.0898,172.6804,0.0000,0.0000,0.0000,0.0000,0.0000,nothing
315420,-0.2283,0.0976,-0.0184,0.3035,1.3037,-9.6639,1.8074,7.1485,172.6242,0.0000,0.0000,0.0000,0.0000,0.0000,nothing
315536,-0.2440,0.0849,0.0209,0.3867,1.2121,-9.7376,1.8524,7.1426,172.6186,0.0000,0.0000,0.0000,0.0000,0.0000,nothing
315652,-0.2592,0.0837,-0.0566,0.2496,1.1947,-9.6981,1.8136,7.1305,172.6401,0.0000,0.0000,0.0000,0.0000,0.0000,nothing
315768,-0.2204,0.0523,0.0783,0.3077,1.2821,-9.7549,1.8114,7.1660,172.6063,0.0000,0.0000,0.0000,0.0000,0.0000,nothing
315884,-0.1746,0.0977,-0.0130,0.3603,1.0936,-9.6382,1.8427,7.0969,172.6653,0.0000,0.0000,0.0000,0.0000,0.0000,nothing
316000,-0.1670,0.0723,0.0277,0.3777,1.2151,-9.7046,1.8795,7.1004,172.6526,0.0000,0.0000,0.0000,0.0000,0.0000,nothing
316116,-0.1366,0.0601,0.0022,0.2987,1.1942,-9.7190,1.8663,7.0905,172.6655,0.0000,0.0000,0.0000,0.0000,0.0000,nothing
316232,-0.2765,0.0791,-0.0211,0.3029,1.2612,-9.7932,1.8553,7.1151,172.6445,0.0000,0.0000,0.0000,0.0000,0.0000,nothing
316348,-0.2129,0.0517,0.0522,0.2634,1.1451,-9.7501,1.8234,7.0731,172.6933,0.0000,0.0000,0.0000,0.0000,0.0000,nothing
316464,-0.2078,0.0429,0.0172,0.2975,1.1008,-9.7717,1.8143,7.0081,172.7586,0.0000,0.0000,0.0000,0.0000,0.0000,nothing
316580,-0.1815,0.0690,0.0101,0.3304,1.2169,-9.7388,1.8257,7.0191,172.7450,0.0000,0.0000,0.0000,0.0000,0.0000,nothing
316696,-0.1670,0.0818,0.0618,0.2089,1.2756,-9.7136,1.7654,7.0651,172.7155,0.0000,0.0000,0.0000,0.0000,0.0000,nothing
316812,-0.1785,0.0780,-0.0663,0.3681,1.3169,-9.7112,1.8040,7.1303,172.6427,0.0000,0.0000,0.0000,0.0000,0.0000,nothing
316928,-0.1824,0.0534,0.0303,0.3657,1.2474,-9.7256,1.8372,7.1477,172.6176,0.0000,0.0000,0.0000,0.0000,0.0000,nothing
317044,-0.2037,0.0713,-0.0023,0.4028,1.2025,-9.7005,1.8893,7.1390,172.6127,0.0000,0.0000,0.0000,0.0000,0.0000,nothing
317160,-0.2146,0.0532,0.0172,0.2454,1.3001,-9.7172,1.8438,7.1869,172.5779,0.0000,0.0000,0.0000,0.0000,0.0000,nothing
317276,-0.1914,0.0496,-0.0379,0.4459,1.1624,-9.7370,1.9199,7.1484,172.5957,0.0000,0.0000,0.0000,0.0000,0.0000,nothing
317392,-0.1929,0.0795,0.0215,0.3981,1.2175,-9.7292,1.9604,7.1462,172.5871,0.0000,0.0000,0.0000,0.0000,0.0000,nothing
317508,-0.1905,0.0496,-0.0255,0.1658,1.2486,-9.6675,1.8623,7.1674,172.5921,0.0000,0.0000,0.0000,0.0000,0.0000,nothing
317624,-0.2014,0.0733,-0.0342,0.3113,1.2151,-9.7082,1.8583,7.1637,172.5967,0.0000,0.0000,0.0000,0.0000,0.0000,nothing
317740,-0.1958,0.0727,-0.0120,0.4651,1.2001,-9.7543,1.9437,7.1480,172.5898,0.0000,0.0000,0.0000,0.0000,0.0000,nothing
317856,-0.2367,0.0412,0.0695,0.1933,1.2947,-9.7436,1.8618,7.1901,172.5703,0.0000,0.0000,0.0000,0.0000,0.0000,nothing
317972,-0.2090,0.0825,-0.0375,0.2783,1.0786,-9.7208,1.8387,7.1042,172.6593,0.0000,0.0000,0.0000,0.0000,0.0000,nothing
318088,-0.1906,0.0564,0.0119,0.4429,1.1977,-9.7436,1.9133,7.0939,172.6500,0.0000,0.0000,0.0000,0.0000,0.0000,nothing
318204,-0.2468,0.0596,-0.0037,0.2532,1.2780,-9.7711,1.8690,7.1296,172.6270,0.0000,0.0000,0.0000,0.0000,0.0000,nothing
318320,-0.2019,0.0743,-0.0115,0.3316,1.2702,-9.7424,1.8754,7.1591,172.5969,0.0000,0.0000,0.0000,0.0000,0.0000,nothing
318436,-0.2393,0.1213,0.0067,0.3633,1.2738,-9.5305,1.9038,7.2031,172.5470,0.0000,0.0000,0.0000,0.0000,0.0000,nothing
318552,-0.2652,0.0638,0.1070,0.1921,1.2187,-9.7489,1.8252,7.1952,172.5745,0.0000,0.0000,0.0000,0.0000,0.0000,nothing
318668,-0.1789,0.0628,-0.0823,0.4046,1.0583,-9.7651,1.8788,7.0934,172.6595,0.0000,0.0000,0.0000,0.0000,0.0000,nothing
318784,-0.1376,0.0829,-0.0363,0.3119,1.2019,-9.7154,1.8734,7.0890,172.6652,0.0000,0.0000,0.0000,0.0000,0.0000,nothing
318900,-0.1471,0.0732,0.0240,0.3286,1.1900,-9.7082,1.8784,7.0785,172.6740,0.0000,0.0000,0.0000,0.0000,0.0000,nothing
319016,-0.2176,0.0879,-0.0001,0.2161,1.2504,-9.7130,1.8170,7.1041,172.6649,0.0000,0.0000,0.0000,0.0000,0.0000,nothing
319132,-0.1756,0.1013,0.0154,0.3831,1.1630,-9.7597,1.8587,7.0726,172.6848,0.0000,0.0000,0.0000,0.0000,0.0000,nothing
319248,-0.2613,0.0841,-0.0236,0.2418,1.2259,-9.6999,1.8146,7.0854,172.6836,0.0000,0.0000,0.0000,0.0000,0.0000,nothing
319364,-0.2519,0.1010,-0.0217,0.2706,1.1936,-9.7274,1.7912,7.0761,172.6984,0.0000,0.0000,0.0000,0.0000,0.0000,nothing
319480,-0.2454,0.0314,-0.0168,0.3250,1.1427,-9.7220,1.8023,7.0385,172.7321,0.0000,0.0000,0.0000,0.0000,0.0000,nothing
319596,-0.2503,0.0732,0.0389,0.3442,1.1684,-9.7244,1.8233,7.0194,172.7454,0.0000,0.0000,0.0000,0.0000,0.0000,nothing
319712,-0.2067,0.0672,-0.0545,0.3131,1.1936,-9.7346,1.8238,7.0161,172.7484,0.0000,0.0000,0.0000,0.0000,0.0000,nothing
319828,-0.2179,0.0409,-0.0106,0.2358,1.2025,-9.7160,1.7795,7.0198,172.7559,0.0000,0.0000,0.0000,0.0000,0.0000,nothing
319944,-0.1918,0.0705,0.0188,0.3585,1.1774,-9.6831,1.8119,7.0107,172.7567,0.0000,0.0000,0.0000,0.0000,0.0000,nothing
320060,-0.2466,0.0703,0.0003,0.2676,1.1959,-9.7424,1.7868,7.0092,172.7644,0.0000,0.0000,0.0000,0.0000,0.0000,nothing
320176,-0.2360,0.0444,0.0270,0.3208,1.2181,-9.7537,1.7951,7.0198,172.7521,0.0000,0.0000,0.0000,0.0000,0.0000,nothing
320292,-0.1842,0.0686,0.0543,0.3310,1.1672,-9.7561,1.8086,6.9996,172.7682,0.0000,0.0000,0.0000,0.0000,0.0000,nothing
320408,-0.2294,0.0770,-0.0112,0.2676,1.1570,-9.7208,1.7843,6.9782,172.7951,0.0000,0.0000,0.0000,0.0000,0.0000,nothing
320524,-0.1813,0.0853,-0.0222,0.3041,1.1702,-9.7058,1.7840,6.9676,172.8055,0.0000,0.0000,0.0000,0.0000,0.0000,nothing
320640,-0.1798,0.0758,-0.0480,0.3963,1.1834,-9.7447,1.8369,6.9627,172.7968,0.0000,0.0000,0.0000,0.0000,0.0000,nothing
320756,-0.2121,0.0717,-0.0312,0.2801,1.2576,-9.7310,1.8167,7.0025,172.7634,0.0000,0.0000,0.0000,0.0000,0.0000,nothing
320872,-0.1845,0.0416,-0.0033,0.2712,1.0499,-9.7609,1.7932,6.9158,172.8533,0.0000,0.0000,0.0000,0.0000,0.0000,nothing
320988,-0.0995,0.0375,-0.0108,0.3729,1.1397,-9.7106,1.8323,6.8932,172.8651,0.0000,0.0000,0.0000,0.0000,0.0000,nothing
321104,-0.1554,0.0547,0.0349,0.3226,1.2498,-9.6915,1.8381,6.9382,172.8201,0.0000,0.0000,0.0000,0.0000,0.0000,nothing
321220,-0.2476,0.0874,0.0199,0.2580,1.3115,-9.7076,1.8052,7.0135,172.7556,0.0000,0.0000,0.0000,0.0000,0.0000,nothing
321336,-0.1501,0.0529,-0.0327,0.3675,1.0942,-9.7453,1.8394,6.9523,172.8062,0.0000,0.0000,0.0000,0.0000,0.0000,nothing
321452,-0.1451,0.0807,-0.0380,0.3148,1.2426,-9.6819,1.8402,6.9879,172.7715,0.0000,0.0000,0.0000,0.0000,0.0000,nothing
321568,-0.2123,0.0743,0.0115,0.4322,1.3043,-9.7154,1.9087,7.0531,172.6906,0.0000,0.0000,0.0000,0.0000,0.0000,nothing
321684,-0.2180,0.0943,-0.0579,0.2783,1.2181,-9.7112,1.8807,7.0625,172.6889,0.0000,0.0000,0.0000,0.0000,0.0000,nothing
321800,-0.2698,0.0875,0.0376,0.3484,1.2612,-9.6699,1.8972,7.0987,172.6496,0.0000,0.0000,0.0000,0.0000,0.0000,nothing
321916,-0.2646,0.0705,0.0878,0.2604,1.0786,-9.7489,1.8595,7.0198,172.7357,0.0000,0.0000,0.0000,0.0000,0.0000,nothing
322032,-0.2237,0.0607,-0.0085,0.2682,1.1540,-9.6897,1.8310,6.9969,172.7652,0.0000,0.0000,0.0000,0.0000,0.0000,nothing
322148,-0.2485,0.0898,0.0151,0.3699,1.3947,-9.7465,1.8633,7.1116,172.6459,0.0000,0.0000,0.0000,0.0000,0.0000,nothing
322264,-0.2545,0.0533,0.0787,0.2915,1.0930,-9.7112,1.8479,7.0424,172.7168,0.0000,0.0000,0.0000,0.0000,0.0000,nothing
322380,-0.1632,0.0622,0.0203,0.3891,1.2007,-9.7513,1.8900,7.0396,172.7086,0.0000,0.0000,0.0000,0.0000,0.0000,nothing
322496,-0.1481,0.0564,-0.0330,0.3190,1.0954,-9.6460,1.8893,6.9836,172.7629,0.0000,0.0000,0.0000,0.0000,0.0000,nothing
322612,-0.2097,0.0566,-0.0480,0.2592,1.3031,-9.7801,1.8505,7.0444,172.7142,0.0000,0.0000,0.0000,0.0000,0.0000,nothing
322728,-0.2326,0.0787,-0.0191,0.2694,1.1457,-9.7717,1.8222,7.0083,172.7564,0.0000,0.0000,0.0000,0.0000,0.0000,nothing
322844,-0.2214,0.0739,0.0038,0.2682,1.1594,-9.7112,1.7971,6.9881,172.7823,0.0000,0.0000,0.0000,0.0000,0.0000,nothing
322960,-0.1835,0.0544,-0.0331,0.3448,1.1588,-9.7244,1.8190,6.9684,172.7958,0.0000,0.0000,0.0000,0.0000,0.0000,nothing
323076,-0.1400,0.0652,-0.0042,0.2987,1.1235,-9.7322,1.8117,6.9298,172.8350,0.0000,0.0000,0.0000,0.0000,0.0000,nothing
323192,-0.2001,0.0483,0.0057,0.3855,1.2845,-9.7274,1.8556,6.9886,172.7668,0.0000,0.0000,0.0000,0.0000,0.0000,nothing
323308,-0.1860,0.0483,-0.0050,0.3202,1.1145,-9.7238,1.8575,6.9433,172.8102,0.0000,0.0000,0.0000,0.0000,0.0000,nothing
323424,-0.2183,0.0387,-0.0048,0.2310,1.2103,-9.7657,1.8060,6.9553,172.8118,0.0000,0.0000,0.0000,0.0000,0.0000,nothing
323540,-0.2172,0.0354,-0.0671,0.2352,1.3426,-9.8387,1.7606,7.0376,172.7433,0.0000,0.0000,0.0000,0.0000,0.0000,nothing
323656,-0.2174,0.0954,-0.0121,0.3274,1.2971,-9.7112,1.7760,7.0941,172.6847,0.0000,0.0000,0.0000,0.0000,0.0000,nothing
323772,-0.2481,0.0916,0.0224,0.3681,1.2971,-9.7160,1.8134,7.1446,172.6266,0.0000,0.0000,0.0000,0.0000,0.0000,nothing
323888,-0.2131,0.0669,0.0225,0.2556,1.1098,-9.6885,1.7824,7.0837,172.6933,0.0000,0.0000,0.0000,0.0000,0.0000,nothing
324004,-0.1685,0.0559,-0.0269,0.3855,1.2109,-9.7561,1.8288,7.0823,172.6830,0.0000,0.0000,0.0000,0.0000,0.0000,nothing
324120,-0.2318,0.0683,-0.0151,0.2203,1.1888,-9.7525,1.7743,7.0689,172.7096,0.0000,0.0000,0.0000,0.0000,0.0000,nothing
324236,-0.2161,0.0680,-0.0611,0.3316,1.2115,-9.7477,1.7902,7.0701,172.7046,0.0000,0.0000,0.0000,0.0000,0.0000,nothing
324352,-0.1763,0.0836,0.0671,0.2915,1.0679,-9.7729,1.7811,6.9862,172.7881,0.0000,0.0000,0.0000,0.0000,0.0000,nothing
324468,-0.1764,0.0988,0.0154,0.3454,1.3199,-9.7316,1.8044,7.0595,172.7112,0.0000,0.0000,0.0000,0.0000,0.0000,nothing
324584,-0.2245,0.0436,0.0094,0.3526,1.2558,-9.7346,1.8297,7.0882,172.6771,0.0000,0.0000,0.0000,0.0000,0.0000,nothing
324700,-0.1660,0.1025,0.0275,0.3238,1.1840,-9.6789,1.8369,7.0765,172.6866,0.0000,0.0000,0.0000,0.0000,0.0000,nothing
324816,-0.1838,0.0300,-0.0045,0.4477,1.2887,-9.6370,1.9163,7.1294,172.6150,0.0000,0.0000,0.0000,0.0000,0.0000,nothing
324932,-0.3825,0.0893,0.0579,0.2047,1.3426,-9.7358,1.8438,7.2017,172.5636,0.0000,0.0000,0.0000,0.0000,0.0000,nothing
325048,-0.2221,0.0817,-0.0020,0.2676,1.1415,-9.7316,1.8159,7.1503,172.6204,0.0000,0.0000,0.0000,0.0000,0.0000,nothing
325164,-0.2252,0.0720,0.0042,0.2442,1.1965,-9.7322,1.7770,7.1360,172.6439,0.0000,0.0000,0.0000,0.0000,0.0000,nothing
325280,-0.2474,0.0698,-0.0264,0.3256,1.1786,-9.7262,1.7896,7.1129,172.6631,0.0000,0.0000,0.0000,0.0000,0.0000,nothing
325396,-0.1866,0.0479,0.0249,0.2448,1.1325,-9.7160,1.7541,7.0664,172.7170,0.0000,0.0000,0.0000,0.0000,0.0000,nothing
325512,-0.2072,0.0615,-0.0151,0.2981,1.1367,-9.7723,1.7522,7.0227,172.7598,0.0000,0.0000,0.0000,0.0000,0.0000,nothing
325628,-0.1730,0.0736,0.0067,0.3406,1.1816,-9.7418,1.7758,7.0116,172.7648,0.0000,0.0000,0.0000,0.0000,0.0000,nothing
325744,-0.1984,0.0796,-0.0585,0.3292,1.2205,-9.7005,1.7911,7.0271,172.7460,0.0000,0.0000,0.0000,0.0000,0.0000,nothing
325860,-0.1952,0.0708,0.0616,0.3597,1.2265,-9.7178,1.8223,7.0432,172.7225,0.0000,0.0000,0.0000,0.0000,0.0000,nothing
325976,-0.1885,0.0533,-0.0346,0.3376,1.2109,-9.7088,1.8376,7.0494,172.7126,0.0000,0.0000,0.0000,0.0000,0.0000,nothing
326092,-0.1955,0.0720,0.0239,0.3418,1.2815,-9.7208,1.8535,7.0951,172.6644,0.0000,0.0000,0.0000,0.0000,0.0000,nothing
326208,-0.1891,0.0680,-0.0067,0.3172,1.2295,-9.7292,1.8535,7.1054,172.6544,0.0000,0.0000,0.0000,0.0000,0.0000,nothing
326324,-0.2931,0.0887,0.0260,0.3035,1.2199,-9.6969,1.8460,7.1115,172.6504,0.0000,0.0000,0.0000,0.0000,0.0000,nothing
326440,-0.1914,0.0780,-0.0110,0.2574,1.0685,-9.7040,1.8125,7.0288,172.7390,0.0000,0.0000,0.0000,0.0000,0.0000,nothing
326556,-0.1607,0.0723,-0.0630,0.4465,1.2001,-9.7507,1.8918,7.0269,172.7204,0.0000,0.0000,0.0000,0.0000,0.0000,nothing
