timestamp_ms,gyro_x,gyro_y,gyro_z,accel_x,accel_y,accel_z,roll,pitch,yaw,adc0,adc1,adc2,adc3,adc4,Label
15792,-0.1816,0.0335,-0.0027,0.3196,1.2151,-9.7238,1.8440,7.0707,172.6904,0.0000,0.0000,0.0000,0.0000,0.0000,nothing
15908,-0.1940,0.0399,0.0282,0.3184,1.2031,-9.7507,1.8453,7.0667,172.6940,0.0000,0.0000,0.0000,0.0000,0.0000,nothing
16024,-0.2014,0.0494,-0.0275,0.3071,1.2235,-9.7370,1.8400,7.0758,172.6865,0.0000,0.0000,0.0000,0.0000,0.0000,nothing
16140,-0.1716,0.0560,0.0406,0.2939,1.1756,-9.7513,1.8274,7.0554,172.7095,0.0000,0.0000,0.0000,0.0000,0.0000,nothing
16256,-0.1798,0.0613,0.0327,0.2526,1.2666,-9.7627,1.7915,7.0889,172.6860,0.0000,0.0000,0.0000,0.0000,0.0000,nothing
16372,-0.2601,0.0634,0.0356,0.1377,1.1612,-9.7477,1.6928,7.0594,172.7385,0.0000,0.0000,0.0000,0.0000,0.0000,nothing
16488,0.2184,-0.0465,-0.0607,0.6321,1.2947,-9.7819,1.8912,7.1065,172.6436,0.0000,0.0000,0.0000,0.0000,0.0000,หนึ่ง
16604,-0.4726,0.1355,0.0386,0.3430,1.5611,-9.7675,1.9008,7.3045,172.4496,0.0000,0.0000,0.0000,0.0000,0.0000,หนึ่ง
16720,-0.3570,0.0907,0.0795,0.2005,1.1044,-9.7507,1.8279,7.2203,172.5495,0.0000,0.0000,0.0000,0.0000,0.0000,หนึ่ง
16836,-0.1381,0.0425,-0.0273,0.3340,0.9978,-9.7729,1.8399,7.0810,172.6815,0.0000,0.0000,0.0000,0.0000,0.0000,หนึ่ง
16952,-0.1207,0.0491,-0.0274,0.2825,1.1983,-9.7418,1.8208,7.0739,172.6932,0.0000,0.0000,0.0000,0.0000,0.0000,หนึ่ง
17068,-0.1406,0.0712,0.0354,0.3322,1.2564,-9.7298,1.8327,7.1018,172.6631,0.0000,0.0000,0.0000,0.0000,0.0000,หนึ่ง
17184,-0.2029,0.0623,0.0018,0.3304,1.2420,-9.7525,1.8419,7.1170,172.6461,0.0000,0.0000,0.0000,0.0000,0.0000,หนึ่ง
17300,-0.1820,0.0406,0.0333,0.4028,1.1349,-9.7286,1.8931,7.0703,172.6781,0.0000,0.0000,0.0000,0.0000,0.0000,หนึ่ง
17416,-0.1674,-0.0258,0.0127,0.3699,1.4312,-9.7645,1.9186,7.1971,172.5490,0.0000,0.0000,0.0000,0.0000,0.0000,break_time
17532,-0.3209,0.0808,-0.0128,0.3544,1.2516,-9.6466,1.9352,7.2160,172.5264,0.0000,0.0000,0.0000,0.0000,0.0000,break_time
17648,-0.2856,0.1062,0.0354,0.2843,1.2211,-9.7543,1.9073,7.2076,172.5417,0.0000,0.0000,0.0000,0.0000,0.0000,break_time
17764,-0.1911,0.0637,0.0169,0.3089,1.1475,-9.7645,1.8965,7.1567,172.5937,0.0000,0.0000,0.0000,0.0000,0.0000,break_time
17880,-0.1775,0.0609,-0.0022,0.3717,1.2277,-9.7160,1.9242,7.1607,172.5827,0.0000,0.0000,0.0000,0.0000,0.0000,break_time
17996,-0.2120,0.0395,-0.0194,0.2640,1.2145,-9.7579,1.8855,7.1538,172.5994,0.0000,0.0000,0.0000,0.0000,0.0000,break_time
18112,-0.1761,0.0761,-0.0239,0.3328,1.1768,-9.7250,1.8915,7.1280,172.6227,0.0000,0.0000,0.0000,0.0000,0.0000,break_time
18228,-0.1614,0.0642,-0.0026,0.3280,1.2001,-9.7394,1.8938,7.1173,172.6325,0.0000,0.0000,0.0000,0.0000,0.0000,break_time
18344,-0.1570,0.0282,0.0258,0.2676,1.2337,-9.7310,1.8607,7.1279,172.6308,0.0000,0.0000,0.0000,0.0000,0.0000,break_time
18460,-0.1900,0.0736,-0.0053,0.3562,1.2193,-9.7160,1.8829,7.1299,172.6232,0.0000,0.0000,0.0000,0.0000,0.0000,break_time
18576,-0.2090,0.0590,0.0333,0.3897,1.2390,-9.7256,1.9222,7.1424,172.6009,0.0000,0.0000,0.0000,0.0000,0.0000,break_time
18692,-0.1922,0.0492,0.0536,0.2484,1.2372,-9.7501,1.8747,7.1511,172.6048,0.0000,0.0000,0.0000,0.0000,0.0000,break_time
18808,-0.1699,0.0828,0.0181,0.3627,1.2091,-9.7124,1.8994,7.1452,172.6041,0.0000,0.0000,0.0000,0.0000,0.0000,break_time
18924,-0.2064,0.0766,-0.0117,0.3358,1.2133,-9.7418,1.9054,7.1402,172.6074,0.0000,0.0000,0.0000,0.0000,0.0000,break_time
19040,-0.1997,0.0477,0.0106,0.3424,1.2247,-9.7352,1.9147,7.1427,172.6025,0.0000,0.0000,0.0000,0.0000,0.0000,break_time
19156,-0.2045,0.0751,-0.0538,0.3214,1.1930,-9.7250,1.9111,7.1274,172.6182,0.0000,0.0000,0.0000,0.0000,0.0000,break_time
19272,-0.2174,0.0432,-0.0033,0.3232,1.2289,-9.7382,1.9086,7.1335,172.6130,0.0000,0.0000,0.0000,0.0000,0.0000,break_time
19388,-0.2177,0.0528,-0.0211,0.2592,1.2582,-9.7238,1.8692,7.1572,172.6003,0.0000,0.0000,0.0000,0.0000,0.0000,break_time
19504,-0.2027,0.0551,0.0465,0.3496,1.2139,-9.7519,1.8860,7.1506,172.6024,0.0000,0.0000,0.0000,0.0000,0.0000,break_time
19620,-0.2241,0.0675,-0.0080,0.2658,1.2217,-9.7579,1.8522,7.1489,172.6126,0.0000,0.0000,0.0000,0.0000,0.0000,break_time
19736,-0.1891,0.0514,0.0639,0.3286,1.2223,-9.7286,1.8589,7.1497,172.6102,0.0000,0.0000,0.0000,0.0000,0.0000,break_time
19852,-0.2217,0.0465,0.0139,0.1634,1.2283,-9.7268,1.7686,7.1544,172.6280,0.0000,0.0000,0.0000,0.0000,0.0000,break_time
19968,-0.1825,0.0568,0.0149,0.3226,1.2211,-9.7603,1.7796,7.1517,172.6280,0.0000,0.0000,0.0000,0.0000,0.0000,break_time
20084,-0.2226,0.0559,-0.0285,0.3095,1.2067,-9.7232,1.7826,7.1436,172.6351,0.0000,0.0000,0.0000,0.0000,0.0000,break_time
20200,-0.2075,0.0868,0.0228,0.2634,1.2408,-9.7238,1.7583,7.1562,172.6288,0.0000,0.0000,0.0000,0.0000,0.0000,break_time
20316,-0.2119,0.0618,-0.0432,0.3460,1.2187,-9.7280,1.7845,7.1542,172.6243,0.0000,0.0000,0.0000,0.0000,0.0000,break_time
20432,-0.2213,0.0434,0.0495,0.2789,1.2624,-9.7537,1.7685,7.1760,172.6071,0.0000,0.0000,0.0000,0.0000,0.0000,nothing
20548,-0.2003,0.0637,-0.0192,0.3436,1.2169,-9.7202,1.7925,7.1716,172.6055,0.0000,0.0000,0.0000,0.0000,0.0000,nothing
20664,-0.2101,0.0600,0.0245,0.3220,1.2361,-9.7633,1.8007,7.1756,172.5996,0.0000,0.0000,0.0000,0.0000,0.0000,nothing
20780,-0.1964,0.0796,-0.0277,0.3370,1.2169,-9.7687,1.8167,7.1677,172.6033,0.0000,0.0000,0.0000,0.0000,0.0000,nothing
20896,-0.2215,0.0603,-0.0236,0.2628,1.2277,-9.7160,1.7888,7.1708,172.6072,0.0000,0.0000,0.0000,0.0000,0.0000,nothing
21012,-0.1864,0.0568,0.0057,0.3232,1.1870,-9.7507,1.7984,7.1474,172.6276,0.0000,0.0000,0.0000,0.0000,0.0000,nothing
21128,-0.1735,0.0763,-0.0435,0.3113,1.2319,-9.7112,1.8007,7.1552,172.6194,0.0000,0.0000,0.0000,0.0000,0.0000,nothing
21244,-0.1978,0.0660,-0.0247,0.2933,1.2157,-9.7465,1.7916,7.1503,172.6264,0.0000,0.0000,0.0000,0.0000,0.0000,nothing
21360,-0.1883,0.0492,0.0169,0.3017,1.2253,-9.7082,1.7891,7.1543,172.6232,0.0000,0.0000,0.0000,0.0000,0.0000,nothing
21476,-0.1359,0.0459,-0.0080,0.1838,1.2594,-9.7256,1.7176,7.1766,172.6187,0.0000,0.0000,0.0000,0.0000,0.0000,หนึ่ง
21592,-0.3422,0.0218,0.0055,0.4052,1.2253,-9.7944,1.7813,7.1714,172.6084,0.0000,0.0000,0.0000,0.0000,0.0000,หนึ่ง
21708,-0.2750,0.0626,-0.0100,0.1143,1.1229,-9.7142,1.6706,7.1139,172.6906,0.0000,0.0000,0.0000,0.0000,0.0000,หนึ่ง
21824,-0.1592,0.0687,0.0376,0.3131,1.0319,-9.7519,1.6864,7.0063,172.7916,0.0000,0.0000,0.0000,0.0000,0.0000,หนึ่ง
21940,-0.1486,0.0439,0.0005,0.2921,1.1792,-9.7274,1.6885,6.9966,172.8006,0.0000,0.0000,0.0000,0.0000,0.0000,หนึ่ง
22056,-0.1579,0.0349,-0.0354,0.3412,1.2211,-9.7561,1.7184,7.0100,172.7804,0.0000,0.0000,0.0000,0.0000,0.0000,หนึ่ง
22172,-0.2110,0.0991,0.0825,0.3160,1.2839,-9.6939,1.7317,7.0629,172.7258,0.0000,0.0000,0.0000,0.0000,0.0000,หนึ่ง
22288,-0.2004,0.0491,-0.0106,0.3137,1.2408,-9.7100,1.7420,7.0844,172.7024,0.0000,0.0000,0.0000,0.0000,0.0000,break_time
22404,-0.3168,0.0402,-0.0026,0.3214,1.1894,-9.9435,1.7518,7.0572,172.7265,0.0000,0.0000,0.0000,0.0000,0.0000,break_time
22520,-0.1251,0.0040,-0.0653,0.2670,1.0601,-9.7896,1.7319,6.9691,172.8168,0.0000,0.0000,0.0000,0.0000,0.0000,break_time
22636,-0.1087,0.0402,0.0639,0.3747,1.2307,-9.7418,1.7773,6.9917,172.7838,0.0000,0.0000,0.0000,0.0000,0.0000,break_time
22752,-0.1783,0.0682,-0.0004,0.2532,1.2893,-9.7178,1.7476,7.0479,172.7365,0.0000,0.0000,0.0000,0.0000,0.0000,break_time
22868,-0.2127,0.0668,0.0154,0.3879,1.2552,-9.7549,1.7987,7.0758,172.6969,0.0000,0.0000,0.0000,0.0000,0.0000,break_time
22984,-0.2151,0.0633,-0.0211,0.2682,1.2307,-9.7220,1.7756,7.0894,172.6894,0.0000,0.0000,0.0000,0.0000,0.0000,break_time
23100,-0.1756,0.0510,-0.0067,0.3364,1.1906,-9.7561,1.7941,7.0758,172.6981,0.0000,0.0000,0.0000,0.0000,0.0000,break_time
23216,-0.2166,0.0613,0.0245,0.2622,1.2157,-9.7208,1.7681,7.0808,172.6996,0.0000,0.0000,0.0000,0.0000,0.0000,break_time
23332,-0.1752,0.0271,-0.0210,0.3484,1.1714,-9.7364,1.7947,7.0583,172.7148,0.0000,0.0000,0.0000,0.0000,0.0000,break_time
23448,-0.1815,0.0574,0.0487,0.3172,1.2163,-9.7244,1.8006,7.0651,172.7068,0.0000,0.0000,0.0000,0.0000,0.0000,break_time
23564,-0.1832,0.0690,0.0558,0.3172,1.2361,-9.7525,1.8054,7.0805,172.6906,0.0000,0.0000,0.0000,0.0000,0.0000,break_time
23680,-0.1911,0.0631,0.0803,0.3226,1.2217,-9.7585,1.8128,7.0857,172.6838,0.0000,0.0000,0.0000,0.0000,0.0000,break_time
23796,-0.1861,0.0755,0.0136,0.3699,1.3671,-9.7777,1.8462,7.1729,172.5909,0.0000,0.0000,0.0000,0.0000,0.0000,break_time
23912,-0.2435,0.0646,0.0367,0.2724,1.2522,-9.7106,1.8210,7.1901,172.5805,0.0000,0.0000,0.0000,0.0000,0.0000,break_time
24028,-0.1988,0.0438,0.0360,0.3214,1.1852,-9.7543,1.8263,7.1635,172.6050,0.0000,0.0000,0.0000,0.0000,0.0000,break_time
24144,-0.1857,0.1035,0.0367,0.3041,1.2271,-9.7459,1.8210,7.1644,172.6055,0.0000,0.0000,0.0000,0.0000,0.0000,break_time
24260,-0.1892,0.0713,0.0046,0.3334,1.2175,-9.7280,1.8336,7.1609,172.6057,0.0000,0.0000,0.0000,0.0000,0.0000,break_time
24376,-0.2024,0.0556,0.0365,0.3119,1.2744,-9.7232,1.8324,7.1911,172.5767,0.0000,0.0000,0.0000,0.0000,0.0000,break_time
24492,-0.2221,0.0714,0.0029,0.3101,1.2235,-9.7172,1.8305,7.1892,172.5790,0.0000,0.0000,0.0000,0.0000,0.0000,break_time
24608,-0.2042,0.0440,-0.0094,0.3615,1.2019,-9.7693,1.8579,7.1712,172.5896,0.0000,0.0000,0.0000,0.0000,0.0000,break_time
24724,-0.2015,0.0416,-0.0635,0.2909,1.2307,-9.7076,1.8424,7.1762,172.5886,0.0000,0.0000,0.0000,0.0000,0.0000,break_time
24840,-0.1969,0.0682,0.0922,0.3346,1.1738,-9.7543,1.8533,7.1444,172.6167,0.0000,0.0000,0.0000,0.0000,0.0000,break_time
24956,-0.1838,0.0573,-0.0125,0.3286,1.2019,-9.7669,1.8592,7.1311,172.6281,0.0000,0.0000,0.0000,0.0000,0.0000,break_time
25072,-0.2104,0.0872,0.0131,0.2909,1.2331,-9.7681,1.8425,7.1371,172.6265,0.0000,0.0000,0.0000,0.0000,0.0000,break_time
25188,-0.1820,0.0896,0.0071,0.2706,1.2343,-9.7453,1.8160,7.1450,172.6255,0.0000,0.0000,0.0000,0.0000,0.0000,break_time
25304,-0.1915,0.1031,-0.0338,0.3711,1.1965,-9.7525,1.8507,7.1294,172.6318,0.0000,0.0000,0.0000,0.0000,0.0000,nothing
25420,-0.2293,0.0815,0.0299,0.2903,1.2181,-9.7346,1.8352,7.1294,172.6358,0.0000,0.0000,0.0000,0.0000,0.0000,nothing
25536,-0.2069,0.0635,-0.0218,0.2921,1.1882,-9.7376,1.8222,7.1119,172.6561,0.0000,0.0000,0.0000,0.0000,0.0000,nothing
25652,-0.2196,0.0466,0.0533,0.3047,1.2337,-9.7304,1.8179,7.1229,172.6464,0.0000,0.0000,0.0000,0.0000,0.0000,nothing
25768,-0.2052,0.0663,-0.0030,0.2753,1.2193,-9.7358,1.7969,7.1242,172.6504,0.0000,0.0000,0.0000,0.0000,0.0000,nothing
25884,-0.2018,0.0872,0.0147,0.3023,1.2127,-9.7447,1.7935,7.1208,172.6545,0.0000,0.0000,0.0000,0.0000,0.0000,nothing
26000,-0.2033,0.0608,0.0562,0.2712,1.2594,-9.7872,1.7715,7.1418,172.6396,0.0000,0.0000,0.0000,0.0000,0.0000,nothing
26116,-0.2104,0.0669,-0.0232,0.3544,1.2235,-9.7549,1.8008,7.1420,172.6322,0.0000,0.0000,0.0000,0.0000,0.0000,nothing
26232,-0.1790,0.0605,0.1152,0.3322,1.1702,-9.7286,1.8148,7.1134,172.6564,0.0000,0.0000,0.0000,0.0000,0.0000,nothing
26348,-0.1749,0.0481,-0.1468,0.1616,1.1989,-9.7681,1.7273,7.1017,172.6891,0.0000,0.0000,0.0000,0.0000,0.0000,nothing
26464,-0.1937,0.0862,0.0303,0.4549,1.2378,-9.6825,1.8209,7.1193,172.6492,0.0000,0.0000,0.0000,0.0000,0.0000,nothing
26580,-0.2069,0.0763,-0.0226,0.2765,1.2289,-9.7932,1.7992,7.1223,172.6516,0.0000,0.0000,0.0000,0.0000,0.0000,nothing
26696,-0.2135,0.0679,0.0365,0.4064,1.2187,-9.7208,1.8567,7.1241,172.6355,0.0000,0.0000,0.0000,0.0000,0.0000,nothing
26812,-0.2116,0.0466,-0.0284,0.2789,1.1900,-9.7400,1.8339,7.1080,172.6569,0.0000,0.0000,0.0000,0.0000,0.0000,nothing
26928,-0.2142,0.0458,0.0412,0.3579,1.1750,-9.7430,1.8594,7.0844,172.6732,0.0000,0.0000,0.0000,0.0000,0.0000,nothing
27044,-0.1801,0.0905,0.0010,0.3023,1.2522,-9.7507,1.8496,7.1074,172.6534,0.0000,0.0000,0.0000,0.0000,0.0000,nothing
27160,-0.2016,0.0886,-0.0046,0.2975,1.1870,-9.7094,1.8389,7.0934,172.6698,0.0000,0.0000,0.0000,0.0000,0.0000,nothing
27276,-0.2214,0.0464,-0.0772,0.3418,1.2037,-9.7154,1.8549,7.0899,172.6690,0.0000,0.0000,0.0000,0.0000,0.0000,nothing
27392,-0.1978,0.0765,0.0323,0.2891,1.2474,-9.7208,1.8384,7.1118,172.6520,0.0000,0.0000,0.0000,0.0000,0.0000,nothing
27508,-0.1704,0.0742,0.0468,0.3202,1.2061,-9.7412,1.8414,7.1061,172.6568,0.0000,0.0000,0.0000,0.0000,0.0000,nothing
27624,-0.1989,0.0412,-0.0379,0.3053,1.2516,-9.7400,1.8353,7.1274,172.6377,0.0000,0.0000,0.0000,0.0000,0.0000,nothing
27740,-0.1971,0.0573,0.0338,0.3573,1.2235,-9.7406,1.8603,7.1301,172.6288,0.0000,0.0000,0.0000,0.0000,0.0000,nothing
27856,-0.2014,0.0791,-0.0601,0.3017,1.2049,-9.7322,1.8505,7.1226,172.6386,0.0000,0.0000,0.0000,0.0000,0.0000,nothing
27972,-0.2443,0.0494,0.0241,0.3639,1.2055,-9.7669,1.8773,7.1134,172.6405,0.0000,0.0000,0.0000,0.0000,0.0000,nothing
28088,-0.1828,0.0650,0.0436,0.3340,1.2079,-9.7495,1.8843,7.1080,172.6440,0.0000,0.0000,0.0000,0.0000,0.0000,nothing
28204,-0.2194,0.0521,-0.0352,0.2867,1.2007,-9.7196,1.8636,7.1011,172.6560,0.0000,0.0000,0.0000,0.0000,0.0000,nothing
28320,-0.2143,0.0728,0.0027,0.2616,1.2396,-9.7106,1.8304,7.1182,172.6479,0.0000,0.0000,0.0000,0.0000,0.0000,nothing
28436,-0.1726,0.0628,0.0031,0.3394,1.2337,-9.7783,1.8446,7.1251,172.6376,0.0000,0.0000,0.0000,0.0000,0.0000,nothing
28552,-0.1922,0.0513,-0.0181,0.2891,1.2145,-9.7471,1.8287,7.1225,172.6441,0.0000,0.0000,0.0000,0.0000,0.0000,nothing
28668,-0.1791,0.0349,0.0095,0.3017,1.2133,-9.7675,1.8214,7.1180,172.6503,0.0000,0.0000,0.0000,0.0000,0.0000,nothing
28784,-0.1999,0.0571,-0.0236,0.3089,1.2253,-9.7495,1.8193,7.1221,172.6468,0.0000,0.0000,0.0000,0.0000,0.0000,nothing
28900,-0.1726,0.0858,0.0170,0.2957,1.2432,-9.7322,1.8100,7.1376,172.6342,0.0000,0.0000,0.0000,0.0000,0.0000,nothing
29016,-0.2161,0.0500,-0.0244,0.3125,1.2277,-9.7453,1.8112,7.1414,172.6301,0.0000,0.0000,0.0000,0.0000,0.0000,nothing
29132,-0.1975,0.0650,-0.0225,0.3190,1.2546,-9.7657,1.8157,7.1590,172.6120,0.0000,0.0000,0.0000,0.0000,0.0000,nothing
29248,-0.1846,0.0813,0.0457,0.2975,1.2067,-9.7130,1.8082,7.1510,172.6216,0.0000,0.0000,0.0000,0.0000,0.0000,nothing
29364,-0.1947,0.0593,-0.0518,0.3556,1.2049,-9.7765,1.8342,7.1380,172.6277,0.0000,0.0000,0.0000,0.0000,0.0000,nothing
29480,-0.2243,0.0506,-0.0419,0.3286,1.2217,-9.7190,1.8429,7.1403,172.6233,0.0000,0.0000,0.0000,0.0000,0.0000,nothing
29596,-0.2052,0.0410,-0.0086,0.3556,1.2313,-9.7352,1.8661,7.1466,172.6113,0.0000,0.0000,0.0000,0.0000,0.0000,nothing
29712,-0.2174,0.0506,-0.0005,0.2664,1.2181,-9.7382,1.8350,7.1447,172.6211,0.0000,0.0000,0.0000,0.0000,0.0000,nothing
29828,-0.2029,0.0603,0.0350,0.3544,1.2007,-9.7489,1.8581,7.1319,172.6276,0.0000,0.0000,0.0000,0.0000,0.0000,nothing
29944,-0.1940,0.0623,-0.0454,0.2724,1.2325,-9.7418,1.8312,7.1395,172.6271,0.0000,0.0000,0.0000,0.0000,0.0000,nothing
30060,-0.1928,0.0675,0.0026,0.2939,1.1918,-9.7669,1.8191,7.1209,172.6481,0.0000,0.0000,0.0000,0.0000,0.0000,nothing
30176,-0.1864,0.0817,0.0079,0.3603,1.1888,-9.7406,1.8475,7.1041,172.6572,0.0000,0.0000,0.0000,0.0000,0.0000,nothing
30292,-0.2014,0.0871,0.0247,0.2963,1.2486,-9.7519,1.8354,7.1230,172.6419,0.0000,0.0000,0.0000,0.0000,0.0000,nothing
30408,-0.1764,0.0470,0.0085,0.3071,1.2103,-9.7537,1.8308,7.1177,172.6482,0.0000,0.0000,0.0000,0.0000,0.0000,nothing
30524,-0.2060,0.0926,-0.0511,0.3532,1.1786,-9.7304,1.8540,7.0962,172.6632,0.0000,0.0000,0.0000,0.0000,0.0000,nothing
30640,-0.1847,0.0528,-0.0068,0.3035,1.2361,-9.7232,1.8460,7.1107,172.6512,0.0000,0.0000,0.0000,0.0000,0.0000,nothing
30756,-0.1880,0.0657,-0.0093,0.2873,1.2067,-9.7579,1.8287,7.1043,172.6618,0.0000,0.0000,0.0000,0.0000,0.0000,nothing
30872,-0.1693,0.0821,-0.0371,0.2975,1.2181,-9.7418,1.8194,7.1062,172.6622,0.0000,0.0000,0.0000,0.0000,0.0000,nothing
30988,-0.1789,0.0624,0.0012,0.3137,1.2067,-9.7483,1.8204,7.1009,172.6671,0.0000,0.0000,0.0000,0.0000,0.0000,nothing
31104,-0.1858,0.0429,-0.0025,0.3125,1.2235,-9.7382,1.8207,7.1066,172.6616,0.0000,0.0000,0.0000,0.0000,0.0000,nothing
31220,-0.2346,0.0758,0.0320,0.3280,1.2366,-9.7382,1.8300,7.1192,172.6470,0.0000,0.0000,0.0000,0.0000,0.0000,nothing
31336,-0.2192,0.0549,-0.0112,0.3472,1.2091,-9.7501,1.8494,7.1138,172.6474,0.0000,0.0000,0.0000,0.0000,0.0000,nothing
31452,-0.1928,0.0592,0.0897,0.3334,1.2055,-9.7932,1.8580,7.1037,172.6549,0.0000,0.0000,0.0000,0.0000,0.0000,nothing
31568,-0.2038,0.0487,-0.0153,0.2700,1.2115,-9.7603,1.8294,7.1006,172.6651,0.0000,0.0000,0.0000,0.0000,0.0000,nothing
31684,-0.1842,0.0646,-0.0008,0.3035,1.2271,-9.7286,1.8237,7.1091,172.6584,0.0000,0.0000,0.0000,0.0000,0.0000,nothing
31800,-0.2189,0.0559,-0.0078,0.3562,1.2067,-9.7639,1.8487,7.1023,172.6587,0.0000,0.0000,0.0000,0.0000,0.0000,nothing
31916,-0.2184,0.0573,0.0465,0.2149,1.2313,-9.7070,1.7899,7.1147,172.6613,0.0000,0.0000,0.0000,0.0000,0.0000,nothing
32032,-0.1981,0.0859,0.0604,0.3603,1.1828,-9.7244,1.8215,7.0963,172.6713,0.0000,0.0000,0.0000,0.0000,0.0000,nothing
32148,-0.1809,0.0262,0.0330,0.3178,1.2079,-9.7322,1.8250,7.0938,172.6728,0.0000,0.0000,0.0000,0.0000,0.0000,nothing
32264,-0.2015,0.0537,0.0202,0.3490,1.1912,-9.7537,1.8459,7.0803,172.6807,0.0000,0.0000,0.0000,0.0000,0.0000,nothing
32380,-0.1909,0.0750,-0.0169,0.2580,1.2420,-9.7328,1.8120,7.0992,172.6709,0.0000,0.0000,0.0000,0.0000,0.0000,nothing
32496,-0.2164,0.0518,-0.0145,0.3101,1.2055,-9.7471,1.8116,7.0940,172.6760,0.0000,0.0000,0.0000,0.0000,0.0000,nothing
32612,-0.2072,0.0633,-0.0209,0.2927,1.1756,-9.7477,1.8012,7.0720,172.7000,0.0000,0.0000,0.0000,0.0000,0.0000,nothing
32728,-0.2033,0.0747,-0.0198,0.3316,1.1953,-9.7418,1.8146,7.0639,172.7044,0.0000,0.0000,0.0000,0.0000,0.0000,nothing
32844,-0.2341,0.0695,0.0419,0.4501,1.2001,-9.7711,1.8951,7.0571,172.6904,0.0000,0.0000,0.0000,0.0000,0.0000,nothing
32960,-0.1726,0.0581,-0.0229,0.2861,1.2600,-9.7400,1.8725,7.0882,172.6662,0.0000,0.0000,0.0000,0.0000,0.0000,nothing
33076,-0.1951,0.0378,-0.0363,0.3298,1.2259,-9.7729,1.8770,7.0939,172.6595,0.0000,0.0000,0.0000,0.0000,0.0000,nothing
33192,-0.2262,0.1040,-0.0457,0.3095,1.2163,-9.6657,1.8713,7.1013,172.6538,0.0000,0.0000,0.0000,0.0000,0.0000,nothing
33308,-0.1325,0.0875,-0.0266,0.2813,0.9116,-9.8387,1.8472,6.9193,172.8360,0.0000,0.0000,0.0000,0.0000,0.0000,nothing
33424,-0.1070,0.0698,-0.0288,0.2089,1.3127,-9.7633,1.7838,6.9932,172.7807,0.0000,0.0000,0.0000,0.0000,0.0000,nothing
33540,-0.1971,0.1032,0.1107,0.2622,1.3384,-9.7453,1.7581,7.0757,172.7070,0.0000,0.0000,0.0000,0.0000,0.0000,nothing
33656,-0.2283,0.0785,-0.0807,0.4166,1.2181,-9.7202,1.8257,7.0818,172.6844,0.0000,0.0000,0.0000,0.0000,0.0000,nothing
33772,-0.2099,0.0616,0.0192,0.3065,1.1947,-9.7615,1.8216,7.0710,172.6958,0.0000,0.0000,0.0000,0.0000,0.0000,nothing
33888,-0.1940,0.0590,0.0055,0.2580,1.2019,-9.7442,1.7900,7.0669,172.7077,0.0000,0.0000,0.0000,0.0000,0.0000,nothing
34004,-0.1986,0.0503,0.0033,0.3083,1.1068,-9.7807,1.7904,7.0054,172.7672,0.0000,0.0000,0.0000,0.0000,0.0000,nothing
34120,-0.1406,0.0369,-0.0179,0.4334,1.1008,-9.7310,1.8645,6.9498,172.8021,0.0000,0.0000,0.0000,0.0000,0.0000,nothing
34236,-0.3294,0.0408,0.0342,0.0215,1.1086,-9.7076,1.6916,6.9068,172.8871,0.0000,0.0000,0.0000,0.0000,0.0000,หนึ่ง
34352,-0.0274,0.0183,-0.0573,0.4795,1.2959,-9.5897,1.8047,6.9839,172.7844,0.0000,0.0000,0.0000,0.0000,0.0000,หนึ่ง
34468,-0.1651,0.0472,-0.0203,0.3502,1.3288,-9.7483,1.8282,7.0615,172.7033,0.0000,0.0000,0.0000,0.0000,0.0000,หนึ่ง
34584,-0.2597,0.0896,-0.0375,0.3496,1.3432,-9.7214,1.8494,7.1416,172.6204,0.0000,0.0000,0.0000,0.0000,0.0000,หนึ่ง
34700,-0.2470,0.0773,-0.0087,0.3154,1.2408,-9.7412,1.8485,7.1530,172.6096,0.0000,0.0000,0.0000,0.0000,0.0000,หนึ่ง
34816,-0.3256,0.1182,0.0375,0.3394,1.1846,-9.7591,1.8614,7.1293,172.6292,0.0000,0.0000,0.0000,0.0000,0.0000,หนึ่ง
34932,-0.2323,0.0761,0.0035,0.4723,1.1145,-9.6789,1.9522,7.0729,172.6600,0.0000,0.0000,0.0000,0.0000,0.0000,break_time
35048,-0.2184,0.0003,-0.0269,0.2747,1.2624,-9.7657,1.9167,7.1020,172.6413,0.0000,0.0000,0.0000,0.0000,0.0000,break_time
35164,-0.1873,0.0455,0.0232,0.2376,1.1947,-9.6987,1.8645,7.0939,172.6627,0.0000,0.0000,0.0000,0.0000,0.0000,break_time
35280,-0.1535,0.0506,0.0154,0.4088,1.1864,-9.7699,1.9161,7.0763,172.6663,0.0000,0.0000,0.0000,0.0000,0.0000,break_time
35396,-0.1830,0.0538,-0.0083,0.2879,1.2648,-9.7657,1.8919,7.1064,172.6436,0.0000,0.0000,0.0000,0.0000,0.0000,break_time
35512,-0.2110,0.0758,0.0090,0.3376,1.2762,-9.7406,1.8996,7.1417,172.6074,0.0000,0.0000,0.0000,0.0000,0.0000,break_time
35628,-0.1737,0.0465,-0.0259,0.3154,1.2025,-9.7064,1.8943,7.1335,172.6168,0.0000,0.0000,0.0000,0.0000,0.0000,break_time
35744,-0.2140,0.0575,-0.0071,0.3532,1.1947,-9.7364,1.9111,7.1192,172.6261,0.0000,0.0000,0.0000,0.0000,0.0000,break_time
35860,-0.2033,0.0889,-0.0274,0.2795,1.2307,-9.7537,1.8828,7.1262,172.6268,0.0000,0.0000,0.0000,0.0000,0.0000,break_time
35976,-0.2037,0.0600,0.0226,0.3226,1.2163,-9.7370,1.8828,7.1252,172.6277,0.0000,0.0000,0.0000,0.0000,0.0000,break_time
36092,-0.2098,0.0643,0.0615,0.2843,1.2426,-9.7424,1.8604,7.1393,172.6199,0.0000,0.0000,0.0000,0.0000,0.0000,break_time
36208,-0.2187,0.0652,-0.0350,0.3520,1.2277,-9.7651,1.8792,7.1414,172.6129,0.0000,0.0000,0.0000,0.0000,0.0000,break_time
36324,-0.1989,0.0484,0.0533,0.3119,1.2187,-9.7382,1.8733,7.1403,172.6156,0.0000,0.0000,0.0000,0.0000,0.0000,break_time
36440,-0.2124,0.0739,-0.0120,0.3238,1.2031,-9.7358,1.8750,7.1303,172.6248,0.0000,0.0000,0.0000,0.0000,0.0000,break_time
36556,-0.1928,0.0526,-0.0518,0.3388,1.2163,-9.7597,1.8848,7.1273,172.6252,0.0000,0.0000,0.0000,0.0000,0.0000,break_time
36672,-0.2166,0.0555,0.0405,0.3196,1.3731,-9.7364,1.8825,7.2170,172.5390,0.0000,0.0000,0.0000,0.0000,0.0000,break_time
36788,-0.1832,0.0506,0.0262,0.2957,1.0762,-9.7250,1.8675,7.1268,172.6301,0.0000,0.0000,0.0000,0.0000,0.0000,break_time
36904,-0.2292,0.0532,0.0194,0.3424,1.2552,-9.7543,1.8801,7.1470,172.6074,0.0000,0.0000,0.0000,0.0000,0.0000,break_time
37020,-0.2199,0.0560,0.0450,0.2700,1.2277,-9.7573,1.8493,7.1491,172.6131,0.0000,0.0000,0.0000,0.0000,0.0000,break_time
37136,-0.1827,0.0807,0.0214,0.3454,1.1983,-9.7034,1.8666,7.1379,172.6196,0.0000,0.0000,0.0000,0.0000,0.0000,break_time
37252,-0.2074,0.0613,-0.0489,0.3400,1.2247,-9.7573,1.8780,7.1390,172.6156,0.0000,0.0000,0.0000,0.0000,0.0000,break_time
37368,-0.1960,0.0904,-0.0078,0.3334,1.2259,-9.7148,1.8852,7.1439,172.6090,0.0000,0.0000,0.0000,0.0000,0.0000,break_time
37484,-0.2132,0.0553,0.0041,0.3035,1.2390,-9.7328,1.8738,7.1547,172.6015,0.0000,0.0000,0.0000,0.0000,0.0000,break_time
37600,-0.2155,0.0766,0.0229,0.3298,1.2438,-9.7543,1.8786,7.1655,172.5898,0.0000,0.0000,0.0000,0.0000,0.0000,break_time
37716,-0.1835,0.0673,-0.0109,0.2963,1.2175,-9.7424,1.8636,7.1610,172.5981,0.0000,0.0000,0.0000,0.0000,0.0000,break_time
37832,-0.1830,0.0555,0.0195,0.3220,1.2127,-9.7519,1.8649,7.1533,172.6051,0.0000,0.0000,0.0000,0.0000,0.0000,break_time
37948,-0.1808,0.0913,0.0044,0.2448,1.2199,-9.7681,1.8208,7.1496,172.6198,0.0000,0.0000,0.0000,0.0000,0.0000,nothing
38064,-0.2105,0.0010,0.0383,0.3310,1.2331,-9.7292,1.8320,7.1566,172.6103,0.0000,0.0000,0.0000,0.0000,0.0000,nothing
38180,-0.2222,0.0894,0.0151,0.3250,1.2139,-9.7148,1.8389,7.1528,172.6122,0.0000,0.0000,0.0000,0.0000,0.0000,nothing
38296,-0.2027,0.0579,0.0158,0.3125,1.2247,-9.7220,1.8377,7.1551,172.6103,0.0000,0.0000,0.0000,0.0000,0.0000,nothing
38412,-0.2117,0.0638,0.0128,0.2939,1.1864,-9.7280,1.8257,7.1346,172.6331,0.0000,0.0000,0.0000,0.0000,0.0000,nothing
38528,-0.1757,0.0615,0.0327,0.3137,1.2025,-9.7382,1.8262,7.1247,172.6426,0.0000,0.0000,0.0000,0.0000,0.0000,nothing
38644,-0.1975,0.0502,-0.0027,0.3508,1.2037,-9.7364,1.8484,7.1166,172.6449,0.0000,0.0000,0.0000,0.0000,0.0000,nothing
38760,-0.1982,0.0521,-0.0115,0.2502,1.2606,-9.7878,1.8086,7.1387,172.6334,0.0000,0.0000,0.0000,0.0000,0.0000,nothing
38876,-0.2023,0.0898,0.0483,0.3095,1.2468,-9.7214,1.8086,7.1553,172.6173,0.0000,0.0000,0.0000,0.0000,0.0000,nothing
38992,-0.2007,0.0507,0.0010,0.3597,1.1888,-9.7412,1.8376,7.1351,172.6297,0.0000,0.0000,0.0000,0.0000,0.0000,nothing
39108,-0.1828,0.0548,0.0476,0.2867,1.2097,-9.7334,1.8213,7.1298,172.6389,0.0000,0.0000,0.0000,0.0000,0.0000,nothing
39224,-0.1750,0.0746,-0.0393,0.3202,1.1726,-9.7418,1.8261,7.1028,172.6639,0.0000,0.0000,0.0000,0.0000,0.0000,nothing
39340,-0.1851,0.0642,0.0113,0.3154,1.2426,-9.7465,1.8274,7.1187,172.6481,0.0000,0.0000,0.0000,0.0000,0.0000,nothing
39456,-0.2082,0.0669,-0.0521,0.1909,1.2510,-9.7184,1.7564,7.1402,172.6447,0.0000,0.0000,0.0000,0.0000,0.0000,nothing
39572,-0.1568,0.0465,0.0813,0.4561,1.2163,-9.7537,1.8466,7.1363,172.6262,0.0000,0.0000,0.0000,0.0000,0.0000,nothing
39688,-0.1596,0.1055,-0.0652,0.3992,1.1672,-9.7436,1.8950,7.1053,172.6439,0.0000,0.0000,0.0000,0.0000,0.0000,nothing
39804,-0.1845,0.0729,0.0048,0.2861,1.2684,-9.7561,1.8720,7.1352,172.6208,0.0000,0.0000,0.0000,0.0000,0.0000,nothing
39920,-0.2015,0.0813,-0.0064,0.3723,1.0852,-9.7310,1.9025,7.0578,172.6878,0.0000,0.0000,0.0000,0.0000,0.0000,nothing
40036,-0.1759,0.0519,-0.0117,0.3035,1.1971,-9.7376,1.8894,7.0525,172.6963,0.0000,0.0000,0.0000,0.0000,0.0000,nothing
40152,-0.1891,0.0765,0.0229,0.2999,1.2361,-9.7412,1.8754,7.0701,172.6829,0.0000,0.0000,0.0000,0.0000,0.0000,nothing
40268,-0.2087,0.0623,-0.0046,0.3017,1.2349,-9.7286,1.8641,7.0861,172.6703,0.0000,0.0000,0.0000,0.0000,0.0000,nothing
40384,-0.2095,0.0907,-0.0008,0.3849,1.2277,-9.7585,1.9019,7.0940,172.6529,0.0000,0.0000,0.0000,0.0000,0.0000,nothing
40500,-0.2007,0.0639,0.0147,0.2598,1.2109,-9.7447,1.8632,7.0927,172.6642,0.0000,0.0000,0.0000,0.0000,0.0000,nothing
40616,-0.1955,0.0641,-0.0207,0.3131,1.2001,-9.7268,1.8598,7.0865,172.6711,0.0000,0.0000,0.0000,0.0000,0.0000,nothing
40732,-0.2268,0.0605,-0.0323,0.3538,1.2349,-9.7028,1.8809,7.1026,172.6501,0.0000,0.0000,0.0000,0.0000,0.0000,nothing
40848,-0.1828,0.0363,-0.0130,0.2747,1.1259,-9.8046,1.8522,7.0469,172.7113,0.0000,0.0000,0.0000,0.0000,0.0000,nothing
40964,-0.1636,0.0533,-0.0233,0.3286,1.2756,-9.7052,1.8592,7.0904,172.6674,0.0000,0.0000,0.0000,0.0000,0.0000,nothing
41080,-0.1693,0.0858,-0.1074,0.3567,1.3067,-9.7585,1.8809,7.1437,172.6103,0.0000,0.0000,0.0000,0.0000,0.0000,nothing
41196,-0.2748,0.0793,0.0248,0.3502,1.2780,-9.7459,1.8968,7.1759,172.5750,0.0000,0.0000,0.0000,0.0000,0.0000,nothing
41312,-0.2499,0.0626,0.0165,0.2849,1.1900,-9.7525,1.8733,7.1537,172.6026,0.0000,0.0000,0.0000,0.0000,0.0000,nothing
41428,-0.2285,0.0957,-0.0149,0.3292,1.1894,-9.7453,1.8780,7.1338,172.6207,0.0000,0.0000,0.0000,0.0000,0.0000,nothing
41544,-0.1892,0.0697,0.0262,0.2993,1.2241,-9.7507,1.8646,7.1356,172.6223,0.0000,0.0000,0.0000,0.0000,0.0000,nothing
41660,-0.2083,0.0408,0.0278,0.3286,1.2127,-9.7442,1.8698,7.1311,172.6254,0.0000,0.0000,0.0000,0.0000,0.0000,nothing
41776,-0.2067,0.0687,0.0518,0.3214,1.2031,-9.7681,1.8699,7.1197,172.6364,0.0000,0.0000,0.0000,0.0000,0.0000,nothing
41892,-0.1952,0.0526,-0.0960,0.3071,1.2552,-9.7064,1.8626,7.1442,172.6146,0.0000,0.0000,0.0000,0.0000,0.0000,nothing
42008,-0.2113,0.0515,0.0926,0.2724,1.2444,-9.7232,1.8356,7.1588,172.6073,0.0000,0.0000,0.0000,0.0000,0.0000,nothing
42124,-0.2215,0.0878,-0.0603,0.3394,1.1983,-9.7573,1.8498,7.1426,172.6193,0.0000,0.0000,0.0000,0.0000,0.0000,nothing
42240,-0.1868,0.0628,0.0282,0.3292,1.2247,-9.7220,1.8572,7.1459,172.6142,0.0000,0.0000,0.0000,0.0000,0.0000,nothing
42356,-0.1988,0.0526,0.0297,0.3077,1.2067,-9.7112,1.8516,7.1393,172.6221,0.0000,0.0000,0.0000,0.0000,0.0000,nothing
42472,-0.2286,0.0826,0.0309,0.3184,1.2366,-9.7154,1.8526,7.1504,172.6111,0.0000,0.0000,0.0000,0.0000,0.0000,nothing
42588,-0.1997,0.0765,-0.1242,0.3334,1.1792,-9.7819,1.8612,7.1222,172.6362,0.0000,0.0000,0.0000,0.0000,0.0000,nothing
42704,-0.1895,0.0862,-0.0061,0.2334,1.2277,-9.7418,1.8113,7.1281,172.6431,0.0000,0.0000,0.0000,0.0000,0.0000,nothing
42820,-0.2018,0.0488,-0.0168,0.4914,1.2085,-9.7561,1.9166,7.1206,172.6234,0.0000,0.0000,0.0000,0.0000,0.0000,nothing
42936,-0.1864,0.0382,-0.0623,0.3723,1.2259,-9.7615,1.9417,7.1239,172.6136,0.0000,0.0000,0.0000,0.0000,0.0000,nothing
43052,-0.1823,0.0856,-0.0274,0.2137,1.2414,-9.7412,1.8722,7.1376,172.6185,0.0000,0.0000,0.0000,0.0000,0.0000,nothing
43168,-0.2413,0.0650,-0.0289,0.1018,1.2887,-9.7028,1.7450,7.1804,172.6084,0.0000,0.0000,0.0000,0.0000,0.0000,nothing
43284,-0.2166,0.0780,0.0668,0.3340,1.1690,-9.7627,1.7651,7.1447,172.6383,0.0000,0.0000,0.0000,0.0000,0.0000,nothing
43400,-0.1959,0.0454,-0.0717,0.3921,1.1295,-9.7639,1.8170,7.0896,172.6790,0.0000,0.0000,0.0000,0.0000,0.0000,nothing
43516,-0.1625,0.0248,0.0393,0.3017,1.1864,-9.7412,1.8114,7.0747,172.6948,0.0000,0.0000,0.0000,0.0000,0.0000,nothing
43632,-0.1730,0.0774,0.0560,0.1670,1.1720,-9.7477,1.7278,7.0528,172.7366,0.0000,0.0000,0.0000,0.0000,0.0000,nothing
43748,-0.1917,0.0489,0.0083,0.4136,1.1068,-9.7549,1.7963,6.9942,172.7766,0.0000,0.0000,0.0000,0.0000,0.0000,nothing
43864,-0.1810,0.0217,-0.0314,0.3771,1.2091,-9.7573,1.8364,7.0007,172.7601,0.0000,0.0000,0.0000,0.0000,0.0000,nothing
43980,-0.1812,0.0648,-0.0271,0.2867,1.1995,-9.7400,1.8201,7.0024,172.7626,0.0000,0.0000,0.0000,0.0000,0.0000,nothing
44096,-0.2014,0.0434,0.0461,0.2951,1.1924,-9.7675,1.8098,6.9979,172.7696,0.0000,0.0000,0.0000,0.0000,0.0000,nothing
44212,-0.1861,0.0698,-0.0282,0.3681,1.2582,-9.7639,1.8431,7.0319,172.7282,0.0000,0.0000,0.0000,0.0000,0.0000,nothing
44328,-0.1881,0.0607,0.0229,0.3597,1.2349,-9.7268,1.8688,7.0517,172.7024,0.0000,0.0000,0.0000,0.0000,0.0000,nothing
44444,-0.2249,0.0836,-0.0065,0.3011,1.2444,-9.7400,1.8576,7.0743,172.6834,0.0000,0.0000,0.0000,0.0000,0.0000,nothing
44560,-0.2283,0.0843,-0.0023,0.3238,1.2163,-9.7034,1.8615,7.0809,172.6760,0.0000,0.0000,0.0000,0.0000,0.0000,nothing
44676,-0.1849,0.0434,-0.0038,0.2807,1.2007,-9.7202,1.8396,7.0768,172.6857,0.0000,0.0000,0.0000,0.0000,0.0000,nothing
44792,-0.2428,0.0462,0.0245,0.3310,1.2241,-9.7046,1.8494,7.0875,172.6727,0.0000,0.0000,0.0000,0.0000,0.0000,nothing
44908,-0.1847,0.0484,-0.0451,0.3340,1.2331,-9.7418,1.8593,7.0998,172.6584,0.0000,0.0000,0.0000,0.0000,0.0000,nothing
45024,-0.2157,0.0349,0.0429,0.3484,1.1888,-9.7298,1.8769,7.0859,172.6673,0.0000,0.0000,0.0000,0.0000,0.0000,nothing
45140,-0.2063,0.0320,0.0219,0.3400,1.2702,-9.7160,1.8879,7.1217,172.6299,0.0000,0.0000,0.0000,0.0000,0.0000,nothing
45256,-0.1787,0.0592,-0.0120,0.2460,1.1505,-9.7968,1.8418,7.0789,172.6831,0.0000,0.0000,0.0000,0.0000,0.0000,หนึ่ง
45372,-0.2365,0.0533,-0.0102,0.4477,1.1702,-9.8052,1.9176,7.0507,172.6906,0.0000,0.0000,0.0000,0.0000,0.0000,หนึ่ง
45488,-0.1723,0.0796,-0.0135,0.2466,1.2085,-9.6957,1.8707,7.0559,172.6978,0.0000,0.0000,0.0000,0.0000,0.0000,หนึ่ง
45604,-0.1539,0.0654,0.0121,0.3232,1.1977,-9.7334,1.8724,7.0515,172.7017,0.0000,0.0000,0.0000,0.0000,0.0000,หนึ่ง
45720,-0.1726,0.1227,0.0350,0.4980,1.2989,-9.6657,1.9770,7.1105,172.6170,0.0000,0.0000,0.0000,0.0000,0.0000,break_time
45836,-0.2763,0.1025,-0.0563,0.4112,1.0475,-9.6867,2.0207,7.0167,172.6953,0.0000,0.0000,0.0000,0.0000,0.0000,break_time
45952,-0.1959,0.0641,-0.0453,0.2454,1.1283,-9.7442,1.9619,6.9753,172.7514,0.0000,0.0000,0.0000,0.0000,0.0000,break_time
46068,-0.1401,0.0499,0.0256,0.3017,1.1702,-9.7388,1.9419,6.9626,172.7690,0.0000,0.0000,0.0000,0.0000,0.0000,break_time
46184,-0.1757,0.0494,0.0600,0.2957,1.2444,-9.7322,1.9203,6.9947,172.7439,0.0000,0.0000,0.0000,0.0000,0.0000,break_time
46300,-0.2136,0.0701,-0.0243,0.3532,1.2229,-9.7591,1.9340,7.0091,172.7264,0.0000,0.0000,0.0000,0.0000,0.0000,break_time
46416,-0.2166,0.0633,-0.0198,0.2394,1.2600,-9.7256,1.8805,7.0461,172.7048,0.0000,0.0000,0.0000,0.0000,0.0000,break_time
46532,-0.2065,0.0759,-0.0085,0.4214,1.3641,-9.7358,1.9380,7.1387,172.6003,0.0000,0.0000,0.0000,0.0000,0.0000,break_time
46648,-0.1964,0.0417,-0.0487,0.1939,1.2534,-9.7525,1.8571,7.1571,172.6034,0.0000,0.0000,0.0000,0.0000,0.0000,break_time
46764,-0.1846,0.0551,0.0046,0.4382,1.1864,-9.7705,1.9265,7.1330,172.6088,0.0000,0.0000,0.0000,0.0000,0.0000,break_time
46880,-0.1860,0.0654,0.0203,0.3083,1.2031,-9.7160,1.9142,7.1253,172.6195,0.0000,0.0000,0.0000,0.0000,0.0000,break_time
46996,-0.2049,0.0789,-0.0288,0.2640,1.2199,-9.7340,1.8769,7.1268,172.6277,0.0000,0.0000,0.0000,0.0000,0.0000,break_time
47112,-0.1964,0.0533,-0.0518,0.3609,1.2079,-9.7525,1.8996,7.1197,172.6287,0.0000,0.0000,0.0000,0.0000,0.0000,break_time
47228,-0.2071,0.0859,-0.1513,0.3017,1.2696,-9.7322,1.8857,7.1506,172.6024,0.0000,0.0000,0.0000,0.0000,0.0000,break_time
47344,-0.1900,0.0672,0.0828,0.3418,1.1840,-9.7436,1.8966,7.1280,172.6215,0.0000,0.0000,0.0000,0.0000,0.0000,break_time
47460,-0.2254,0.0558,0.0185,0.3035,1.2199,-9.7603,1.8836,7.1272,172.6256,0.0000,0.0000,0.0000,0.0000,0.0000,break_time
47576,-0.1804,0.0643,0.0544,0.3454,1.1906,-9.7573,1.8965,7.1097,172.6391,0.0000,0.0000,0.0000,0.0000,0.0000,break_time
47692,-0.1708,0.0638,0.0202,0.3298,1.2145,-9.7789,1.8986,7.1063,172.6419,0.0000,0.0000,0.0000,0.0000,0.0000,break_time
47808,-0.1896,0.0626,0.0243,0.3131,1.1738,-9.7286,1.8917,7.0834,172.6659,0.0000,0.0000,0.0000,0.0000,0.0000,break_time
47924,-0.1748,0.0594,-0.0551,0.2759,1.2570,-9.7681,1.8629,7.1081,172.6494,0.0000,0.0000,0.0000,0.0000,0.0000,break_time
48040,-0.1951,0.1028,0.0256,0.3196,1.2289,-9.7555,1.8628,7.1148,172.6429,0.0000,0.0000,0.0000,0.0000,0.0000,break_time
48156,-0.2251,0.0513,-0.0125,0.3532,1.2127,-9.7262,1.8829,7.1136,172.6389,0.0000,0.0000,0.0000,0.0000,0.0000,break_time
48272,-0.2330,0.0665,0.0191,0.2652,1.2223,-9.7501,1.8492,7.1166,172.6447,0.0000,0.0000,0.0000,0.0000,0.0000,break_time
48388,-0.2181,0.0702,-0.0318,0.3472,1.1768,-9.7310,1.8671,7.0940,172.6619,0.0000,0.0000,0.0000,0.0000,0.0000,break_time
48504,-0.1917,0.0605,-0.0289,0.3256,1.2241,-9.7400,1.8703,7.1006,172.6548,0.0000,0.0000,0.0000,0.0000,0.0000,break_time
48620,-0.1902,0.0429,0.0034,0.3244,1.2025,-9.7687,1.8721,7.0919,172.6627,0.0000,0.0000,0.0000,0.0000,0.0000,break_time
48736,-0.1697,0.0729,-0.0170,0.3178,1.2193,-9.7495,1.8702,7.0952,172.6600,0.0000,0.0000,0.0000,0.0000,0.0000,nothing
48852,-0.2123,0.0694,0.0323,0.3406,1.2037,-9.7238,1.8822,7.0909,172.6610,0.0000,0.0000,0.0000,0.0000,0.0000,nothing
48968,-0.2120,0.0429,-0.0588,0.3083,1.2337,-9.7531,1.8736,7.1024,172.6522,0.0000,0.0000,0.0000,0.0000,0.0000,nothing
49084,-0.1838,0.0808,0.1084,0.2670,1.2013,-9.7118,1.8426,7.0971,172.6653,0.0000,0.0000,0.0000,0.0000,0.0000,nothing
49200,-0.2454,0.0455,-0.0026,0.3502,1.2331,-9.7519,1.8624,7.1076,172.6501,0.0000,0.0000,0.0000,0.0000,0.0000,nothing
49316,-0.2123,0.0675,0.0533,0.1544,1.2073,-9.7352,1.7664,7.1038,172.6777,0.0000,0.0000,0.0000,0.0000,0.0000,nothing
49432,-0.1951,0.0806,0.0303,0.3059,1.2396,-9.7280,1.7685,7.1192,172.6622,0.0000,0.0000,0.0000,0.0000,0.0000,nothing
49548,-0.1723,0.1395,0.0320,0.4040,1.1804,-9.7094,1.8280,7.0999,172.6662,0.0000,0.0000,0.0000,0.0000,0.0000,nothing
49664,-0.2078,0.0972,-0.0818,0.2945,1.1792,-9.7005,1.8178,7.0828,172.6853,0.0000,0.0000,0.0000,0.0000,0.0000,nothing
49780,-0.2052,0.0818,0.0401,0.3526,1.1918,-9.6717,1.8431,7.0765,172.6850,0.0000,0.0000,0.0000,0.0000,0.0000,nothing
49896,-0.2168,0.0541,0.0174,0.3442,1.1971,-9.7298,1.8599,7.0699,172.6871,0.0000,0.0000,0.0000,0.0000,0.0000,nothing
50012,-0.2349,0.0556,-0.0494,0.2586,1.2492,-9.7028,1.8254,7.0962,172.6704,0.0000,0.0000,0.0000,0.0000,0.0000,nothing
50128,-0.2318,0.0579,0.0174,0.3442,1.2079,-9.7412,1.8437,7.0931,172.6689,0.0000,0.0000,0.0000,0.0000,0.0000,nothing
50244,-0.1821,0.0821,-0.0252,0.2694,1.2235,-9.7519,1.8162,7.0986,172.6704,0.0000,0.0000,0.0000,0.0000,0.0000,nothing
50360,-0.2393,0.0375,0.0219,0.3675,1.1708,-9.7172,1.8496,7.0753,172.6845,0.0000,0.0000,0.0000,0.0000,0.0000,nothing
50476,-0.1956,0.0761,-0.0143,0.2682,1.2163,-9.7837,1.8203,7.0762,172.6911,0.0000,0.0000,0.0000,0.0000,0.0000,nothing
50592,-0.2164,0.0896,-0.0586,0.3837,1.2211,-9.7076,1.8628,7.0850,172.6718,0.0000,0.0000,0.0000,0.0000,0.0000,nothing
50708,-0.2121,0.0578,0.0239,0.3226,1.1977,-9.7459,1.8647,7.0767,172.6793,0.0000,0.0000,0.0000,0.0000,0.0000,nothing
50824,-0.2320,0.0536,0.0209,0.3316,1.2199,-9.7340,1.8718,7.0830,172.6714,0.0000,0.0000,0.0000,0.0000,0.0000,nothing
50940,-0.2249,0.0785,0.0329,0.3238,1.2223,-9.7322,1.8737,7.0901,172.6640,0.0000,0.0000,0.0000,0.0000,0.0000,nothing
51056,-0.2521,0.0714,-0.0289,0.2987,1.1900,-9.7507,1.8605,7.0765,172.6805,0.0000,0.0000,0.0000,0.0000,0.0000,nothing
51172,-0.2155,0.1013,0.0304,0.3520,1.1846,-9.7280,1.8801,7.0627,172.6888,0.0000,0.0000,0.0000,0.0000,0.0000,nothing
51288,-0.2052,0.0465,-0.0185,0.3160,1.2187,-9.7208,1.8769,7.0707,172.6820,0.0000,0.0000,0.0000,0.0000,0.0000,nothing
51404,-0.2037,0.0349,0.0398,0.3238,1.1750,-9.7573,1.8779,7.0498,172.7019,0.0000,0.0000,0.0000,0.0000,0.0000,nothing
51520,-0.2139,0.0665,-0.0479,0.3346,1.2989,-9.7447,1.8851,7.1038,172.6479,0.0000,0.0000,0.0000,0.0000,0.0000,nothing
51636,-0.1971,0.1192,-0.0292,0.5740,1.0786,-9.7711,2.0312,7.0222,172.6871,0.0000,0.0000,0.0000,0.0000,0.0000,nothing
51752,-0.2543,0.0954,-0.0337,0.1538,1.3725,-9.7238,1.9178,7.1235,172.6203,0.0000,0.0000,0.0000,0.0000,0.0000,nothing
51868,-0.1666,0.0909,0.0187,0.0233,1.2672,-9.7310,1.7398,7.1533,172.6360,0.0000,0.0000,0.0000,0.0000,0.0000,nothing
51984,-0.2622,0.0589,0.0609,0.5040,1.1552,-9.7783,1.8593,7.1109,172.6476,0.0000,0.0000,0.0000,0.0000,0.0000,nothing
52100,-0.2009,0.0758,0.0086,0.3627,1.2941,-9.6747,1.8860,7.1609,172.5923,0.0000,0.0000,0.0000,0.0000,0.0000,nothing
52216,-0.2533,0.0714,0.0259,0.3651,1.0499,-9.8818,1.9082,7.0496,172.6942,0.0000,0.0000,0.0000,0.0000,0.0000,nothing
52332,-0.2093,0.0521,-0.0303,0.0186,1.2714,-9.7112,1.7288,7.0907,172.6995,0.0000,0.0000,0.0000,0.0000,0.0000,nothing
52448,-0.1830,0.0952,0.1742,0.3232,1.1989,-9.7244,1.7448,7.0841,172.7020,0.0000,0.0000,0.0000,0.0000,0.0000,nothing
52564,-0.2004,0.0679,-0.0639,0.3885,1.1672,-9.7980,1.7960,7.0544,172.7183,0.0000,0.0000,0.0000,0.0000,0.0000,nothing
52680,-0.2074,0.0511,0.0503,0.2053,1.2019,-9.7471,1.7362,7.0518,172.7355,0.0000,0.0000,0.0000,0.0000,0.0000,nothing
52796,-0.1836,0.0405,-0.0551,0.3508,1.1517,-9.7436,1.7673,7.0203,172.7585,0.0000,0.0000,0.0000,0.0000,0.0000,nothing
52912,-0.1596,0.0494,-0.0581,0.3424,1.2253,-9.7609,1.7900,7.0334,172.7402,0.0000,0.0000,0.0000,0.0000,0.0000,nothing
53028,-0.1598,0.0545,0.0642,0.0383,1.2738,-9.7388,1.6334,7.0754,172.7366,0.0000,0.0000,0.0000,0.0000,0.0000,nothing
53144,-0.1823,0.0706,-0.1170,0.4974,1.2474,-9.6933,1.7610,7.1003,172.6824,0.0000,0.0000,0.0000,0.0000,0.0000,nothing
53260,-0.0699,0.1408,0.0870,0.5645,1.3414,-9.4000,1.9204,7.1983,172.5473,0.0000,0.0000,0.0000,0.0000,0.0000,nothing
53376,-0.1326,0.0777,-0.1362,0.3765,1.1235,-9.9016,1.9451,7.1242,172.6124,0.0000,0.0000,0.0000,0.0000,0.0000,nothing
53492,-0.0552,-0.0814,0.0082,0.1748,1.4683,-10.4265,1.8392,7.2192,172.5478,0.0000,0.0000,0.0000,0.0000,0.0000,nothing
53608,-0.2537,-0.0515,0.0316,0.3442,1.0074,-9.9201,1.8532,7.0756,172.6834,0.0000,0.0000,0.0000,0.0000,0.0000,nothing
53724,-0.0626,0.1337,0.0654,0.9050,1.1080,-9.3970,2.2013,7.0399,172.6206,0.0000,0.0000,0.0000,0.0000,0.0000,nothing
53840,-0.1779,0.1058,-0.0038,0.2316,1.4072,-9.9237,2.1122,7.1446,172.5466,0.0000,0.0000,0.0000,0.0000,0.0000,nothing
53956,-0.2369,0.0149,0.0965,0.1437,1.3342,-9.7926,1.9841,7.2061,172.5229,0.0000,0.0000,0.0000,0.0000,0.0000,nothing
54072,-0.2375,0.1058,-0.0140,0.2801,1.2594,-9.7352,1.9493,7.2223,172.5166,0.0000,0.0000,0.0000,0.0000,0.0000,nothing
54188,-0.2447,0.0434,0.1085,0.5136,1.1469,-9.7633,2.0533,7.1693,172.5395,0.0000,0.0000,0.0000,0.0000,0.0000,nothing
54304,-0.2582,0.0789,0.0007,0.2334,1.2552,-9.8034,1.9831,7.1819,172.5466,0.0000,0.0000,0.0000,0.0000,0.0000,nothing
54420,-0.3445,0.1481,-0.0397,0.0299,1.4222,-9.7837,1.8018,7.2913,172.4870,0.0000,0.0000,0.0000,0.0000,0.0000,nothing
54536,-0.2245,0.1385,-0.0217,0.0862,1.2744,-9.6795,1.6734,7.3121,172.4968,0.0000,0.0000,0.0000,0.0000,0.0000,nothing
54652,-0.1144,0.1166,0.0091,0.4525,1.1355,-9.6041,1.7724,7.2555,172.5289,0.0000,0.0000,0.0000,0.0000,0.0000,nothing
54768,-0.1100,0.0286,-0.0371,0.4376,1.0613,-9.7651,1.8502,7.1497,172.6124,0.0000,0.0000,0.0000,0.0000,0.0000,nothing
54884,-0.1761,0.0405,-0.0071,0.2544,1.1505,-9.7214,1.8142,7.1096,172.6603,0.0000,0.0000,0.0000,0.0000,0.0000,nothing
55000,-0.1705,0.0462,-0.0772,0.3729,1.1283,-9.7226,1.8508,7.0603,172.6988,0.0000,0.0000,0.0000,0.0000,0.0000,nothing
55116,-0.1599,0.0436,-0.0296,0.3214,1.2115,-9.7866,1.8524,7.0596,172.6990,0.0000,0.0000,0.0000,0.0000,0.0000,nothing
55232,-0.3179,0.0117,0.0845,0.0575,1.0140,-9.8519,1.6995,6.9407,172.8523,0.0000,0.0000,0.0000,0.0000,0.0000,nothing
55348,-0.2673,0.0421,-0.0731,0.1736,1.2307,-9.7711,1.6305,6.9644,172.8454,0.0000,0.0000,0.0000,0.0000,0.0000,nothing
55464,-0.1254,0.0679,0.0451,0.3388,1.1265,-9.6735,1.6663,6.9321,172.8685,0.0000,0.0000,0.0000,0.0000,0.0000,nothing
55580,-0.1043,0.1944,0.0744,0.6141,1.7879,-9.4377,1.8621,7.3025,172.4613,0.0000,0.0000,0.0000,0.0000,0.0000,nothing
55696,-0.1727,0.2134,0.0571,0.4076,1.2768,-9.5718,1.9169,7.3310,172.4198,0.0000,0.0000,0.0000,0.0000,0.0000,nothing
55812,-0.2150,0.0900,0.0450,0.5232,1.0571,-9.7567,2.0307,7.2152,172.5016,0.0000,0.0000,0.0000,0.0000,0.0000,nothing
55928,0.0080,0.0928,-0.0470,0.4076,1.1469,-9.6131,2.0684,7.1738,172.5310,0.0000,0.0000,0.0000,0.0000,0.0000,nothing
56044,-0.1399,0.0259,-0.0652,0.4286,1.1684,-9.8112,2.1103,7.1346,172.5568,0.0000,0.0000,0.0000,0.0000,0.0000,nothing
56160,-0.2150,0.0339,0.0488,0.3855,1.2097,-9.7477,2.1241,7.1280,172.5591,0.0000,0.0000,0.0000,0.0000,0.0000,nothing
56276,-0.2736,0.0090,-0.0581,0.2670,1.2492,-9.7789,2.0665,7.1430,172.5611,0.0000,0.0000,0.0000,0.0000,0.0000,nothing
56392,-0.3538,0.1137,-0.0153,0.0742,1.5509,-9.6963,1.9030,7.3379,172.4167,0.0000,0.0000,0.0000,0.0000,0.0000,nothing
56508,-0.4162,0.1378,0.0063,0.2023,1.3181,-9.7537,1.8302,7.3737,172.4001,0.0000,0.0000,0.0000,0.0000,0.0000,nothing
56624,-0.2885,0.0960,0.0179,0.2789,1.1373,-9.7495,1.8100,7.3014,172.4752,0.0000,0.0000,0.0000,0.0000,0.0000,nothing
56740,-0.1037,0.0320,0.0290,0.2418,1.0068,-9.7675,1.7701,7.1595,172.6228,0.0000,0.0000,0.0000,0.0000,0.0000,nothing
56856,-0.0977,0.0348,-0.0045,0.3232,1.1888,-9.7747,1.7811,7.1365,172.6424,0.0000,0.0000,0.0000,0.0000,0.0000,nothing
56972,-0.1506,0.0277,-0.0222,0.3903,1.2570,-9.7256,1.8309,7.1587,172.6085,0.0000,0.0000,0.0000,0.0000,0.0000,nothing
57088,-0.2575,0.0733,0.0371,0.2933,1.2696,-9.7304,1.8190,7.1859,172.5851,0.0000,0.0000,0.0000,0.0000,0.0000,nothing
57204,-0.2296,0.0673,-0.0439,0.3735,1.2277,-9.7112,1.8556,7.1873,172.5746,0.0000,0.0000,0.0000,0.0000,0.0000,nothing
57320,-0.2000,0.0819,0.0804,0.3059,1.1918,-9.7717,1.8480,7.1635,172.5996,0.0000,0.0000,0.0000,0.0000,0.0000,nothing
57436,-0.2429,0.0720,-0.0185,0.3196,1.2468,-9.7573,1.8493,7.1750,172.5881,0.0000,0.0000,0.0000,0.0000,0.0000,nothing
57552,-0.2263,0.0513,-0.0120,0.3849,1.2540,-9.7142,1.8893,7.1924,172.5610,0.0000,0.0000,0.0000,0.0000,0.0000,nothing
57668,-0.2225,0.0667,0.0164,0.3370,1.1523,-9.7621,1.8967,7.1459,172.6041,0.0000,0.0000,0.0000,0.0000,0.0000,nothing
57784,-0.2022,0.0675,-0.0699,0.2520,1.1744,-9.7483,1.8541,7.1180,172.6420,0.0000,0.0000,0.0000,0.0000,0.0000,nothing
57900,-0.1122,0.0041,-0.0049,0.3400,1.2660,-9.8657,1.8646,7.1373,172.6208,0.0000,0.0000,0.0000,0.0000,0.0000,nothing
58016,-0.3696,0.0924,0.0128,0.4447,1.3528,-9.7693,1.9366,7.2114,172.5304,0.0000,0.0000,0.0000,0.0000,0.0000,nothing
58132,-0.3071,0.0859,0.0206,0.2083,1.1151,-9.7741,1.8642,7.1410,172.6172,0.0000,0.0000,0.0000,0.0000,0.0000,nothing
58248,-0.1677,0.0548,0.0413,0.2927,1.0140,-9.7525,1.8489,7.0206,172.7377,0.0000,0.0000,0.0000,0.0000,0.0000,nothing
58364,-0.1468,0.0318,-0.0443,0.3286,1.1546,-9.7388,1.8559,6.9943,172.7612,0.0000,0.0000,0.0000,0.0000,0.0000,nothing
58480,-0.1614,0.0357,-0.0277,0.3651,1.2103,-9.7094,1.8839,7.0049,172.7437,0.0000,0.0000,0.0000,0.0000,0.0000,nothing
58596,-0.1626,0.0668,-0.0323,0.3172,1.2313,-9.7412,1.8806,7.0244,172.7257,0.0000,0.0000,0.0000,0.0000,0.0000,nothing
58712,-0.2252,0.0789,-0.0001,0.4016,1.2815,-9.7166,1.9271,7.0726,172.6669,0.0000,0.0000,0.0000,0.0000,0.0000,nothing
58828,-0.2307,0.0738,-0.0279,0.3807,1.2067,-9.7633,1.9561,7.0694,172.6623,0.0000,0.0000,0.0000,0.0000,0.0000,nothing
58944,-0.2146,0.0817,-0.0029,0.3095,1.1924,-9.7196,1.9415,7.0615,172.6738,0.0000,0.0000,0.0000,0.0000,0.0000,nothing
59060,-0.2722,0.0796,-0.0101,0.2610,1.2612,-9.8034,1.8984,7.0884,172.6593,0.0000,0.0000,0.0000,0.0000,0.0000,nothing
59176,-0.1190,0.0783,0.0356,0.2155,1.1696,-9.6627,1.8359,7.0697,172.6934,0.0000,0.0000,0.0000,0.0000,0.0000,nothing
59292,-0.1511,0.0762,0.0117,0.3502,1.1792,-9.8016,1.8555,7.0482,172.7092,0.0000,0.0000,0.0000,0.0000,0.0000,nothing
59408,-0.1227,0.0620,-0.0071,0.4561,1.1098,-9.7741,1.9356,6.9904,172.7440,0.0000,0.0000,0.0000,0.0000,0.0000,nothing
59524,-0.1182,0.1021,0.0308,0.4477,1.3408,-9.5358,2.0070,7.0892,172.6294,0.0000,0.0000,0.0000,0.0000,0.0000,nothing
59640,-0.2947,0.0840,0.0528,0.3196,1.1816,-9.8609,1.9905,7.0629,172.6592,0.0000,0.0000,0.0000,0.0000,0.0000,nothing
59756,-0.0042,0.0093,-0.0641,0.5872,0.8236,-9.7914,2.1338,6.8364,172.8353,0.0000,0.0000,0.0000,0.0000,0.0000,nothing
59872,-0.1603,-0.0357,0.0233,0.4310,1.2570,-9.8297,2.1698,6.8812,172.7817,0.0000,0.0000,0.0000,0.0000,0.0000,nothing
59988,-0.6072,0.1403,0.0608,0.1185,1.5904,-9.7214,2.0217,7.1227,172.5931,0.0000,0.0000,0.0000,0.0000,0.0000,nothing
60104,-0.3142,0.1174,0.0091,0.1329,1.2768,-9.6274,1.8993,7.1654,172.5846,0.0000,0.0000,0.0000,0.0000,0.0000,nothing
60220,-0.2011,0.0694,-0.0553,0.3460,0.7069,-9.8262,1.9108,6.8592,172.8771,0.0000,0.0000,0.0000,0.0000,0.0000,nothing
60336,-0.1569,-0.0264,0.0027,0.3154,1.1576,-9.8932,1.9010,6.8401,172.8982,0.0000,0.0000,0.0000,0.0000,0.0000,nothing
60452,-0.1519,0.0429,-0.0119,0.2245,1.0254,-9.6472,1.8441,6.7636,172.9872,0.0000,0.0000,0.0000,0.0000,0.0000,nothing
60568,-0.2132,-0.0277,-0.0138,0.1245,0.9954,-9.8938,1.7302,6.6607,173.1162,0.0000,0.0000,0.0000,0.0000,0.0000,nothing
60684,-0.2429,0.1532,0.0240,0.3322,1.4282,-9.6490,1.7522,6.8349,172.9420,0.0000,0.0000,0.0000,0.0000,0.0000,nothing
60800,-0.1891,0.1573,0.0443,0.4088,1.0816,-9.7519,1.8155,6.7838,172.9752,0.0000,0.0000,0.0000,0.0000,0.0000,nothing
60916,-0.0431,0.0519,-0.0022,0.2927,1.2378,-9.6837,1.8058,6.8333,172.9299,0.0000,0.0000,0.0000,0.0000,0.0000,nothing
61032,-0.1600,0.0529,-0.0055,0.4555,1.2432,-9.7801,1.8901,6.8739,172.8686,0.0000,0.0000,0.0000,0.0000,0.0000,nothing
61148,-0.2078,0.0612,0.0357,0.2029,1.3169,-9.7052,1.8200,6.9588,172.8048,0.0000,0.0000,0.0000,0.0000,0.0000,nothing
61264,-0.2157,0.1226,0.0368,0.3639,1.2582,-9.6765,1.8514,7.0030,172.7540,0.0000,0.0000,0.0000,0.0000,0.0000,nothing
61380,-0.2146,0.0428,-0.0251,0.3544,1.2109,-9.7866,1.8722,7.0077,172.7441,0.0000,0.0000,0.0000,0.0000,0.0000,nothing
61496,-0.2472,0.0258,0.0173,0.3963,1.2456,-9.7352,1.9162,7.0355,172.7057,0.0000,0.0000,0.0000,0.0000,0.0000,nothing
61612,-0.2060,0.0900,0.0533,0.2724,1.1792,-9.7669,1.8831,7.0200,172.7293,0.0000,0.0000,0.0000,0.0000,0.0000,nothing
61728,-0.2260,0.0474,-0.0414,0.3795,1.2480,-9.7531,1.9158,7.0467,172.6949,0.0000,0.0000,0.0000,0.0000,0.0000,nothing
61844,-0.2293,0.0765,-0.0131,0.3214,1.3384,-9.7549,1.9112,7.1231,172.6224,0.0000,0.0000,0.0000,0.0000,0.0000,nothing
61960,-0.2634,0.0834,-0.0087,0.2568,1.1792,-9.7082,1.8707,7.1032,172.6522,0.0000,0.0000,0.0000,0.0000,0.0000,nothing
62076,-0.2136,0.0663,-0.0101,0.3340,1.1762,-9.7364,1.8787,7.0813,172.6713,0.0000,0.0000,0.0000,0.0000,0.0000,nothing
62192,-0.2065,0.0401,-0.0299,0.3370,1.1936,-9.7442,1.8874,7.0711,172.6789,0.0000,0.0000,0.0000,0.0000,0.0000,nothing
62308,-0.2147,0.0710,0.0348,0.4561,1.1894,-9.7693,1.9642,7.0574,172.6717,0.0000,0.0000,0.0000,0.0000,0.0000,nothing
62424,-0.2091,0.0583,-0.0048,0.3484,1.2642,-9.7298,1.9712,7.0914,172.6370,0.0000,0.0000,0.0000,0.0000,0.0000,nothing
