timestamp_ms,gyro_x,gyro_y,gyro_z,accel_x,accel_y,accel_z,roll,pitch,yaw,adc0,adc1,adc2,adc3,adc4,Label
441287,-0.1854,0.0676,0.0046,0.3238,1.2666,-9.7274,1.8127,7.1965,172.5764,0.0000,0.0000,0.0000,0.0000,0.0000,nothing
441403,-0.1785,0.0631,-0.0015,0.3394,1.2361,-9.7244,1.8297,7.2008,172.5680,0.0000,0.0000,0.0000,0.0000,0.0000,nothing
441519,-0.2198,0.0642,0.0067,0.3131,1.2378,-9.7118,1.8299,7.2067,172.5622,0.0000,0.0000,0.0000,0.0000,0.0000,nothing
441635,-0.1854,0.0784,-0.0378,0.3436,1.2235,-9.7100,1.8479,7.2038,172.5606,0.0000,0.0000,0.0000,0.0000,0.0000,nothing
441751,-0.1862,0.0583,0.0440,0.2957,1.2450,-9.7028,1.8363,7.2142,172.5533,0.0000,0.0000,0.0000,0.0000,0.0000,nothing
441867,-0.2054,0.0656,-0.0248,0.3101,1.2576,-9.7274,1.8337,7.2291,172.5395,0.0000,0.0000,0.0000,0.0000,0.0000,nothing
441983,-0.2136,0.0649,0.0309,0.3137,1.2546,-9.7154,1.8337,7.2416,172.5274,0.0000,0.0000,0.0000,0.0000,0.0000,nothing
442099,-0.1993,0.0852,0.0070,0.3035,1.2366,-9.7017,1.8281,7.2435,172.5269,0.0000,0.0000,0.0000,0.0000,0.0000,nothing
442215,-0.2439,0.0633,-0.0048,0.3011,1.2103,-9.7184,1.8214,7.2288,172.5429,0.0000,0.0000,0.0000,0.0000,0.0000,nothing
442331,-0.2143,0.0780,-0.0196,0.2837,1.2055,-9.7088,1.8054,7.2134,172.5618,0.0000,0.0000,0.0000,0.0000,0.0000,nothing
442447,-0.1740,0.0459,-0.0034,0.2843,1.2582,-9.7537,1.7904,7.2268,172.5524,0.0000,0.0000,0.0000,0.0000,0.0000,nothing
442563,-0.2074,0.0885,0.0282,0.3250,1.2522,-9.7226,1.8013,7.2377,172.5392,0.0000,0.0000,0.0000,0.0000,0.0000,nothing
442679,-0.1861,0.0725,-0.0577,0.3406,1.2774,-9.7232,1.8201,7.2619,172.5111,0.0000,0.0000,0.0000,0.0000,0.0000,nothing
442795,-0.2170,0.0964,-0.0049,0.2957,1.2546,-9.7250,1.8108,7.2705,172.5051,0.0000,0.0000,0.0000,0.0000,0.0000,nothing
442911,-0.2041,0.0609,-0.0571,0.2867,1.2349,-9.7459,1.7968,7.2652,172.5136,0.0000,0.0000,0.0000,0.0000,0.0000,nothing
443027,-0.1876,0.0736,-0.0369,0.3143,1.1971,-9.7334,1.8007,7.2395,172.5376,0.0000,0.0000,0.0000,0.0000,0.0000,nothing
443143,-0.1876,0.0540,0.0177,0.2885,1.2217,-9.7184,1.7894,7.2317,172.5479,0.0000,0.0000,0.0000,0.0000,0.0000,nothing
443259,-0.2016,0.0832,-0.0372,0.3023,1.2229,-9.7310,1.7870,7.2245,172.5555,0.0000,0.0000,0.0000,0.0000,0.0000,nothing
443375,-0.1815,0.0943,0.0479,0.2694,1.2331,-9.7394,1.7654,7.2233,172.5618,0.0000,0.0000,0.0000,0.0000,0.0000,nothing
443491,-0.1869,0.0633,-0.0166,0.2628,1.2827,-9.7418,1.7420,7.2509,172.5406,0.0000,0.0000,0.0000,0.0000,0.0000,nothing
443607,-0.1275,0.0744,0.0218,0.2251,1.1846,-9.7382,1.6992,7.2192,172.5814,0.0000,0.0000,0.0000,0.0000,0.0000,nothing
443723,-0.0913,0.0369,0.0119,0.3316,1.2211,-9.7005,1.7235,7.2144,172.5805,0.0000,0.0000,0.0000,0.0000,0.0000,nothing
443839,-0.1870,0.0934,-0.0819,0.3274,1.3067,-9.7148,1.7425,7.2585,172.5331,0.0000,0.0000,0.0000,0.0000,0.0000,nothing
443955,-0.2699,0.0762,0.1369,0.3178,1.3001,-9.7088,1.7541,7.2950,172.4949,0.0000,0.0000,0.0000,0.0000,0.0000,nothing
444071,-0.2789,0.0746,-0.0335,0.3041,1.2163,-9.7412,1.7561,7.2768,172.5121,0.0000,0.0000,0.0000,0.0000,0.0000,nothing
444187,-0.2112,0.0731,0.0384,0.3190,1.1912,-9.6741,1.7679,7.2508,172.5345,0.0000,0.0000,0.0000,0.0000,0.0000,nothing
444303,-0.1921,0.0875,-0.0628,0.2999,1.2169,-9.7178,1.7665,7.2392,172.5462,0.0000,0.0000,0.0000,0.0000,0.0000,nothing
444419,-0.1876,0.0744,0.0912,0.2969,1.2534,-9.7459,1.7629,7.2478,172.5387,0.0000,0.0000,0.0000,0.0000,0.0000,nothing
444535,-0.1967,0.0971,-0.0074,0.3430,1.2402,-9.7370,1.7868,7.2485,172.5323,0.0000,0.0000,0.0000,0.0000,0.0000,nothing
444651,-0.2035,0.0852,0.0592,0.3059,1.2151,-9.7531,1.7863,7.2334,172.5470,0.0000,0.0000,0.0000,0.0000,0.0000,nothing
444767,-0.2054,0.0977,-0.0299,0.2813,1.2169,-9.7334,1.7720,7.2224,172.5612,0.0000,0.0000,0.0000,0.0000,0.0000,nothing
444883,-0.1944,0.0515,0.0703,0.2867,1.2343,-9.7214,1.7624,7.2234,172.5625,0.0000,0.0000,0.0000,0.0000,0.0000,nothing
444999,-0.2262,0.0770,-0.0299,0.3125,1.2372,-9.7442,1.7683,7.2243,172.5601,0.0000,0.0000,0.0000,0.0000,0.0000,nothing
445115,-0.1825,0.0603,-0.1087,0.2879,1.1792,-9.7280,1.7598,7.1928,172.5928,0.0000,0.0000,0.0000,0.0000,0.0000,nothing
445231,-0.1749,0.0585,0.0754,0.3424,1.2654,-9.7340,1.7836,7.2137,172.5667,0.0000,0.0000,0.0000,0.0000,0.0000,nothing
445347,-0.2275,0.0729,-0.0608,0.2903,1.2378,-9.7250,1.7749,7.2174,172.5653,0.0000,0.0000,0.0000,0.0000,0.0000,nothing
445463,-0.2249,0.0637,0.0423,0.3023,1.2390,-9.7148,1.7742,7.2222,172.5608,0.0000,0.0000,0.0000,0.0000,0.0000,nothing
445579,-0.1905,0.0705,-0.0281,0.3226,1.1774,-9.7322,1.7853,7.1894,172.5900,0.0000,0.0000,0.0000,0.0000,0.0000,nothing
445695,-0.1981,0.0804,0.0331,0.3268,1.3007,-9.7310,1.7974,7.2314,172.5462,0.0000,0.0000,0.0000,0.0000,0.0000,nothing
445811,-0.1969,0.0514,-0.0110,0.2634,1.1912,-9.7699,1.7709,7.2031,172.5802,0.0000,0.0000,0.0000,0.0000,0.0000,หนึ่ง
445927,-0.1990,0.1009,0.0035,0.2586,1.2031,-9.7537,1.7445,7.1857,172.6034,0.0000,0.0000,0.0000,0.0000,0.0000,หนึ่ง
446043,-0.1311,0.0660,-0.0162,0.3544,1.1971,-9.7447,1.7768,7.1670,172.6138,0.0000,0.0000,0.0000,0.0000,0.0000,หนึ่ง
446159,-0.1583,0.0552,-0.0023,0.3029,1.2570,-9.7076,1.7763,7.1877,172.5938,0.0000,0.0000,0.0000,0.0000,0.0000,หนึ่ง
446275,-0.2104,0.0789,-0.0188,0.2813,1.2456,-9.7094,1.7633,7.1997,172.5853,0.0000,0.0000,0.0000,0.0000,0.0000,หนึ่ง
446391,-0.1954,0.0811,0.0146,0.3125,1.2199,-9.7196,1.7697,7.1947,172.5886,0.0000,0.0000,0.0000,0.0000,0.0000,หนึ่ง
446507,-0.2046,0.0772,0.0594,0.2729,1.2349,-9.7370,1.7520,7.1978,172.5899,0.0000,0.0000,0.0000,0.0000,0.0000,หนึ่ง
446623,-0.2349,0.0747,0.0731,0.3352,1.2283,-9.7543,1.7721,7.1952,172.5875,0.0000,0.0000,0.0000,0.0000,0.0000,หนึ่ง
446739,-0.2093,0.0714,0.0473,0.2951,1.2313,-9.7400,1.7671,7.1959,172.5881,0.0000,0.0000,0.0000,0.0000,0.0000,หนึ่ง
446855,-0.1911,0.0932,-0.0127,0.3023,1.2283,-9.7178,1.7671,7.1963,172.5877,0.0000,0.0000,0.0000,0.0000,0.0000,หนึ่ง
446971,-0.2003,0.0822,0.0091,0.3262,1.2648,-9.7118,1.7812,7.2182,172.5630,0.0000,0.0000,0.0000,0.0000,0.0000,หนึ่ง
447087,-0.2346,0.0858,0.0241,0.3256,1.2546,-9.7166,1.7934,7.2317,172.5469,0.0000,0.0000,0.0000,0.0000,0.0000,หนึ่ง
447203,-0.2248,0.0656,0.0329,0.2694,1.2223,-9.7322,1.7714,7.2241,172.5596,0.0000,0.0000,0.0000,0.0000,0.0000,หนึ่ง
447319,-0.1939,0.0710,-0.0374,0.3759,1.0511,-9.6981,1.8147,7.1203,172.6497,0.0000,0.0000,0.0000,0.0000,0.0000,หนึ่ง
447435,-0.1114,0.0867,-0.0155,0.3178,1.2378,-9.7513,1.8185,7.1314,172.6381,0.0000,0.0000,0.0000,0.0000,0.0000,break_time
447551,-0.2439,0.0804,-0.0440,0.3071,1.2468,-9.7130,1.8162,7.1493,172.6212,0.0000,0.0000,0.0000,0.0000,0.0000,break_time
447667,-0.2176,0.0716,-0.0311,0.2718,1.1888,-9.7304,1.7934,7.1307,172.6450,0.0000,0.0000,0.0000,0.0000,0.0000,break_time
447783,-0.2213,0.0724,0.0698,0.2783,1.1947,-9.7017,1.7772,7.1194,172.6599,0.0000,0.0000,0.0000,0.0000,0.0000,break_time
447899,-0.2053,0.0697,0.0360,0.3125,1.2019,-9.7430,1.7818,7.1104,172.6675,0.0000,0.0000,0.0000,0.0000,0.0000,break_time
448015,-0.2158,0.0499,0.1153,0.3160,1.2660,-9.6999,1.7887,7.1425,172.6347,0.0000,0.0000,0.0000,0.0000,0.0000,break_time
448131,-0.2198,0.0664,-0.0412,0.2885,1.2684,-9.7340,1.7781,7.1704,172.6102,0.0000,0.0000,0.0000,0.0000,0.0000,break_time
448247,-0.2375,0.0669,-0.0300,0.3202,1.2331,-9.7346,1.7873,7.1748,172.6036,0.0000,0.0000,0.0000,0.0000,0.0000,break_time
448363,-0.1849,0.0972,0.0112,0.2502,1.2229,-9.7250,1.7548,7.1739,172.6125,0.0000,0.0000,0.0000,0.0000,0.0000,break_time
448479,-0.2075,0.0931,-0.0097,0.2891,1.2756,-9.7394,1.7479,7.2023,172.5864,0.0000,0.0000,0.0000,0.0000,0.0000,break_time
448595,-0.1989,0.0672,-0.0293,0.3148,1.1678,-9.7256,1.7572,7.1665,172.6190,0.0000,0.0000,0.0000,0.0000,0.0000,break_time
448711,-0.1937,0.0915,-0.0630,0.2795,1.2055,-9.7124,1.7451,7.1571,172.6310,0.0000,0.0000,0.0000,0.0000,0.0000,break_time
448827,-0.1726,0.0619,0.0288,0.2939,1.2396,-9.7298,1.7422,7.1672,172.6220,0.0000,0.0000,0.0000,0.0000,0.0000,break_time
448943,-0.1614,0.0329,-0.0316,0.2574,1.2307,-9.7070,1.7187,7.1727,172.6221,0.0000,0.0000,0.0000,0.0000,0.0000,break_time
449059,-0.1917,0.0770,-0.0014,0.3340,1.2366,-9.7370,1.7418,7.1789,172.6107,0.0000,0.0000,0.0000,0.0000,0.0000,break_time
449175,-0.2158,0.0748,-0.0204,0.3286,1.2492,-9.7424,1.7592,7.1913,172.5944,0.0000,0.0000,0.0000,0.0000,0.0000,break_time
449291,-0.2194,0.0841,0.0917,0.3184,1.2648,-9.7256,1.7693,7.2127,172.5712,0.0000,0.0000,0.0000,0.0000,0.0000,break_time
449407,-0.2087,0.0864,0.0266,0.2831,1.2331,-9.7256,1.7578,7.2137,172.5730,0.0000,0.0000,0.0000,0.0000,0.0000,break_time
449523,-0.2023,0.0961,-0.0016,0.2999,1.2259,-9.7334,1.7571,7.2098,172.5769,0.0000,0.0000,0.0000,0.0000,0.0000,break_time
449639,-0.2249,0.0678,-0.0389,0.3430,1.2432,-9.7238,1.7818,7.2170,172.5640,0.0000,0.0000,0.0000,0.0000,0.0000,break_time
449755,-0.2435,0.0633,0.0384,0.2927,1.2630,-9.7280,1.7745,7.2347,172.5486,0.0000,0.0000,0.0000,0.0000,0.0000,break_time
449871,-0.2322,0.0746,0.0502,0.2987,1.2235,-9.7286,1.7715,7.2277,172.5561,0.0000,0.0000,0.0000,0.0000,0.0000,break_time
449987,-0.2114,0.0736,0.0063,0.3131,1.2331,-9.7208,1.7774,7.2275,172.5549,0.0000,0.0000,0.0000,0.0000,0.0000,break_time
450103,-0.1880,0.0702,0.0419,0.2771,1.2121,-9.6999,1.7621,7.2168,172.5690,0.0000,0.0000,0.0000,0.0000,0.0000,break_time
450219,-0.1926,0.0973,-0.0259,0.3627,1.2319,-9.7256,1.7978,7.2165,172.5606,0.0000,0.0000,0.0000,0.0000,0.0000,break_time
450335,-0.1731,0.0518,0.0777,0.3089,1.2780,-9.7268,1.7983,7.2430,172.5348,0.0000,0.0000,0.0000,0.0000,0.0000,nothing
450451,-0.2288,0.1076,-0.0240,0.2945,1.2678,-9.7118,1.7907,7.2621,172.5181,0.0000,0.0000,0.0000,0.0000,0.0000,nothing
450567,-0.2121,0.0650,0.0778,0.3699,1.2480,-9.7088,1.8280,7.2678,172.5034,0.0000,0.0000,0.0000,0.0000,0.0000,nothing
450683,-0.1986,0.1366,-0.0053,0.5728,1.3258,-9.4993,1.9841,7.3332,172.4002,0.0000,0.0000,0.0000,0.0000,0.0000,nothing
450799,-0.2617,0.1001,-0.0142,0.2310,1.2672,-9.7046,1.9209,7.3437,172.4066,0.0000,0.0000,0.0000,0.0000,0.0000,หนึ่ง
450915,-0.2041,0.0515,-0.0301,0.3795,1.2175,-9.7124,1.9509,7.3233,172.4186,0.0000,0.0000,0.0000,0.0000,0.0000,หนึ่ง
451031,-0.1949,0.0751,0.0134,0.2586,1.2295,-9.7430,1.9065,7.3099,172.4430,0.0000,0.0000,0.0000,0.0000,0.0000,หนึ่ง
451147,-0.1572,0.0874,0.0185,0.2975,1.3839,-9.7807,1.8882,7.3845,172.3753,0.0000,0.0000,0.0000,0.0000,0.0000,break_time
451263,-0.2900,0.1216,-0.0510,0.2071,1.1594,-9.7489,1.8201,7.3241,172.4508,0.0000,0.0000,0.0000,0.0000,0.0000,break_time
451379,-0.1633,0.0994,-0.0412,0.3322,1.1576,-9.7334,1.8322,7.2695,172.5007,0.0000,0.0000,0.0000,0.0000,0.0000,break_time
451495,-0.1891,0.0545,0.1123,0.2514,1.2253,-9.7358,1.7957,7.2596,172.5193,0.0000,0.0000,0.0000,0.0000,0.0000,break_time
451611,-0.1879,0.0543,-0.0297,0.3388,1.2229,-9.7328,1.8140,7.2494,172.5248,0.0000,0.0000,0.0000,0.0000,0.0000,break_time
451727,-0.1719,0.0653,0.0344,0.2765,1.2534,-9.7310,1.7940,7.2581,172.5211,0.0000,0.0000,0.0000,0.0000,0.0000,break_time
451843,-0.2243,0.0795,0.0101,0.3083,1.2881,-9.7256,1.7946,7.2864,172.4935,0.0000,0.0000,0.0000,0.0000,0.0000,break_time
451959,-0.2176,0.0826,0.0514,0.2861,1.2343,-9.7220,1.7824,7.2810,172.5017,0.0000,0.0000,0.0000,0.0000,0.0000,break_time
452075,-0.2245,0.0843,-0.0266,0.3388,1.2037,-9.7106,1.8024,7.2591,172.5181,0.0000,0.0000,0.0000,0.0000,0.0000,break_time
452191,-0.1861,0.0592,0.0106,0.2927,1.2301,-9.7017,1.7936,7.2555,172.5238,0.0000,0.0000,0.0000,0.0000,0.0000,break_time
452307,-0.1992,0.0759,-0.0671,0.2646,1.2672,-9.7232,1.7688,7.2722,172.5135,0.0000,0.0000,0.0000,0.0000,0.0000,break_time
452423,-0.1790,0.0643,-0.0244,0.3430,1.1989,-9.7483,1.7920,7.2457,172.5337,0.0000,0.0000,0.0000,0.0000,0.0000,break_time
452539,-0.2304,0.0977,-0.0040,0.2987,1.2983,-9.7292,1.7871,7.2809,172.5007,0.0000,0.0000,0.0000,0.0000,0.0000,break_time
452655,-0.2026,0.0761,0.0533,0.3154,1.1876,-9.6903,1.7934,7.2512,172.5280,0.0000,0.0000,0.0000,0.0000,0.0000,break_time
452771,-0.1902,0.0769,-0.0128,0.2807,1.2378,-9.7370,1.7779,7.2503,172.5326,0.0000,0.0000,0.0000,0.0000,0.0000,break_time
452887,-0.2311,0.0623,-0.0101,0.3502,1.2636,-9.7388,1.8043,7.2641,172.5128,0.0000,0.0000,0.0000,0.0000,0.0000,break_time
