timestamp_ms,gyro_x,gyro_y,gyro_z,accel_x,accel_y,accel_z,roll,pitch,yaw,adc0,adc1,adc2,adc3,adc4,Label
180280,-0.1940,0.0615,-0.0364,0.2819,1.2097,-9.6921,1.7539,7.0275,172.7548,0.0000,0.0000,0.0000,0.0000,0.0000,nothing
180396,-0.1785,0.0538,0.0431,0.3615,1.1786,-9.7507,1.7893,7.0135,172.7596,0.0000,0.0000,0.0000,0.0000,0.0000,nothing
180512,-0.2011,0.0389,0.1077,0.3023,1.2325,-9.7621,1.7864,7.0314,172.7430,0.0000,0.0000,0.0000,0.0000,0.0000,nothing
180628,-0.2030,0.0995,0.0954,0.3208,1.2378,-9.7406,1.7949,7.0521,172.7208,0.0000,0.0000,0.0000,0.0000,0.0000,nothing
180744,-0.2093,0.0627,0.0911,0.2963,1.2277,-9.7352,1.7883,7.0653,172.7097,0.0000,0.0000,0.0000,0.0000,0.0000,nothing
180860,-0.2189,0.0924,0.0176,0.2981,1.2127,-9.7567,1.7832,7.0670,172.7093,0.0000,0.0000,0.0000,0.0000,0.0000,nothing
180976,-0.1835,0.0457,-0.0080,0.2724,1.2349,-9.7178,1.7642,7.0841,172.6973,0.0000,0.0000,0.0000,0.0000,0.0000,nothing
181092,-0.1857,0.0573,0.0113,0.3334,1.2073,-9.7872,1.7814,7.0785,172.6985,0.0000,0.0000,0.0000,0.0000,0.0000,nothing
181208,-0.1785,0.0714,0.0206,0.3071,1.2366,-9.7567,1.7821,7.0927,172.6846,0.0000,0.0000,0.0000,0.0000,0.0000,nothing
181324,-0.0551,-0.0454,0.0277,0.0485,0.8835,-9.7825,1.6324,6.8998,172.9079,0.0000,0.0000,0.0000,0.0000,0.0000,หนึ่ง
181440,-0.3914,0.1194,0.0763,0.3867,1.5317,-9.8178,1.6927,7.0980,172.7009,0.0000,0.0000,0.0000,0.0000,0.0000,หนึ่ง
181556,-0.3449,0.1264,0.0528,0.1275,0.9793,-9.7304,1.5987,6.9637,172.8534,0.0000,0.0000,0.0000,0.0000,0.0000,หนึ่ง
181672,-0.0556,0.0029,-0.0274,0.3262,1.0535,-9.8040,1.6284,6.8801,172.9280,0.0000,0.0000,0.0000,0.0000,0.0000,หนึ่ง
181788,-0.0800,0.0424,0.0068,0.2741,1.1882,-9.7513,1.6254,6.8865,172.9225,0.0000,0.0000,0.0000,0.0000,0.0000,หนึ่ง
181904,-0.1521,0.0349,-0.0375,0.3669,1.2516,-9.7531,1.6766,6.9286,172.8694,0.0000,0.0000,0.0000,0.0000,0.0000,หนึ่ง
182020,-0.1756,0.0988,0.0984,0.3376,1.2654,-9.7172,1.7062,6.9771,172.8152,0.0000,0.0000,0.0000,0.0000,0.0000,หนึ่ง
182136,-0.1919,0.0798,-0.0229,0.3143,1.2546,-9.7573,1.7186,7.0118,172.7786,0.0000,0.0000,0.0000,0.0000,0.0000,หนึ่ง
182252,-0.2109,0.0887,-0.0226,0.2969,1.2289,-9.7567,1.7196,7.0281,172.7625,0.0000,0.0000,0.0000,0.0000,0.0000,หนึ่ง
182368,-0.2121,0.0814,-0.1152,0.3777,1.2181,-9.7424,1.7679,7.0375,172.7417,0.0000,0.0000,0.0000,0.0000,0.0000,หนึ่ง
182484,-0.2108,0.0798,0.0525,0.2939,1.2552,-9.7567,1.7623,7.0665,172.7149,0.0000,0.0000,0.0000,0.0000,0.0000,หนึ่ง
182600,-0.2202,0.0665,0.0279,0.2885,1.2438,-9.7370,1.7544,7.0875,172.6964,0.0000,0.0000,0.0000,0.0000,0.0000,หนึ่ง
182716,-0.1977,0.0754,-0.0348,0.3214,1.2079,-9.7813,1.7658,7.0824,172.6986,0.0000,0.0000,0.0000,0.0000,0.0000,หนึ่ง
182832,-0.1745,0.0601,0.0106,0.2879,1.2091,-9.7136,1.7577,7.0834,172.6996,0.0000,0.0000,0.0000,0.0000,0.0000,หนึ่ง
182948,-0.2221,0.0780,-0.1273,0.3286,1.2366,-9.7412,1.7736,7.0981,172.6814,0.0000,0.0000,0.0000,0.0000,0.0000,หนึ่ง
183064,-0.2196,0.0747,0.0153,0.3238,1.2163,-9.7759,1.7846,7.0971,172.6797,0.0000,0.0000,0.0000,0.0000,0.0000,หนึ่ง
183180,-0.2210,0.0676,0.0061,0.3041,1.2283,-9.7376,1.7836,7.1060,172.6714,0.0000,0.0000,0.0000,0.0000,0.0000,หนึ่ง
183296,-0.2333,0.0927,-0.0037,0.3101,1.2408,-9.7489,1.7859,7.1204,172.6568,0.0000,0.0000,0.0000,0.0000,0.0000,หนึ่ง
183412,-0.2247,0.0935,-0.0977,0.3508,1.2420,-9.7735,1.8113,7.1322,172.6391,0.0000,0.0000,0.0000,0.0000,0.0000,หนึ่ง
183528,-0.2278,0.0931,-0.0154,0.2867,1.2001,-9.7603,1.7972,7.1196,172.6548,0.0000,0.0000,0.0000,0.0000,0.0000,หนึ่ง
183644,-0.1864,0.0858,-0.0259,0.3059,1.1900,-9.7346,1.7961,7.1043,172.6699,0.0000,0.0000,0.0000,0.0000,0.0000,หนึ่ง
183760,-0.2075,0.0491,-0.0488,0.3214,1.2037,-9.7687,1.8035,7.0960,172.6761,0.0000,0.0000,0.0000,0.0000,0.0000,หนึ่ง
183876,-0.1918,0.0420,0.0444,0.3310,1.1936,-9.7525,1.8161,7.0837,172.6849,0.0000,0.0000,0.0000,0.0000,0.0000,หนึ่ง
183992,-0.1806,0.0804,-0.0230,0.2795,1.1942,-9.7430,1.7977,7.0738,172.6991,0.0000,0.0000,0.0000,0.0000,0.0000,หนึ่ง
184108,-0.2274,0.0529,0.0479,0.3508,1.2271,-9.7507,1.8223,7.0833,172.6837,0.0000,0.0000,0.0000,0.0000,0.0000,หนึ่ง
184224,-0.1898,0.0738,-0.0656,0.3196,1.2205,-9.7795,1.8258,7.0859,172.6803,0.0000,0.0000,0.0000,0.0000,0.0000,หนึ่ง
184340,-0.2240,0.0540,0.0299,0.3011,1.2337,-9.7370,1.8190,7.0991,172.6693,0.0000,0.0000,0.0000,0.0000,0.0000,หนึ่ง
184456,-0.2075,0.0603,0.0635,0.3005,1.2325,-9.7501,1.8122,7.1092,172.6611,0.0000,0.0000,0.0000,0.0000,0.0000,หนึ่ง
184572,-0.2372,0.0763,-0.0371,0.3400,1.2229,-9.7358,1.8294,7.1138,172.6524,0.0000,0.0000,0.0000,0.0000,0.0000,หนึ่ง
184688,-0.1831,0.0986,0.0465,0.3035,1.2456,-9.7453,1.8234,7.1305,172.6377,0.0000,0.0000,0.0000,0.0000,0.0000,หนึ่ง
184804,-0.1918,0.0642,-0.0150,0.3412,1.1965,-9.7202,1.8405,7.1188,172.6447,0.0000,0.0000,0.0000,0.0000,0.0000,หนึ่ง
184920,-0.2048,0.0498,-0.0124,0.3041,1.2199,-9.7483,1.8338,7.1199,172.6454,0.0000,0.0000,0.0000,0.0000,0.0000,หนึ่ง
185036,-0.1948,0.0517,-0.1018,0.3113,1.2289,-9.7328,1.8321,7.1271,172.6388,0.0000,0.0000,0.0000,0.0000,0.0000,หนึ่ง
185152,-0.2138,0.0761,0.0417,0.3125,1.2235,-9.7711,1.8306,7.1278,172.6385,0.0000,0.0000,0.0000,0.0000,0.0000,หนึ่ง
185268,-0.2119,0.0529,0.1084,0.3376,1.1983,-9.7058,1.8452,7.1184,172.6439,0.0000,0.0000,0.0000,0.0000,0.0000,หนึ่ง
185384,-0.2221,0.0541,-0.0196,0.3184,1.1983,-9.7226,1.8469,7.1089,172.6527,0.0000,0.0000,0.0000,0.0000,0.0000,หนึ่ง
185500,-0.1926,0.0803,0.0187,0.3143,1.2301,-9.7412,1.8455,7.1173,172.6449,0.0000,0.0000,0.0000,0.0000,0.0000,หนึ่ง
185616,-0.1854,0.0607,0.0251,0.3166,1.2343,-9.7238,1.8460,7.1286,172.6339,0.0000,0.0000,0.0000,0.0000,0.0000,หนึ่ง
185732,-0.1911,0.0733,0.0315,0.3502,1.2366,-9.7567,1.8653,7.1377,172.6202,0.0000,0.0000,0.0000,0.0000,0.0000,หนึ่ง
185848,-0.2165,0.0665,0.0142,0.3316,1.2325,-9.7765,1.8716,7.1420,172.6144,0.0000,0.0000,0.0000,0.0000,0.0000,หนึ่ง
185964,-0.2979,0.0937,0.0678,0.3274,1.5216,-9.7968,1.8737,7.3115,172.4497,0.0000,0.0000,0.0000,0.0000,0.0000,break_time
186080,-0.3081,0.1527,-0.0339,0.3065,1.0164,-9.6705,1.8669,7.1814,172.5775,0.0000,0.0000,0.0000,0.0000,0.0000,break_time
186196,-0.0573,0.0408,-0.0229,0.2688,1.1002,-9.7920,1.8364,7.1038,172.6603,0.0000,0.0000,0.0000,0.0000,0.0000,break_time
186312,-0.1535,0.0732,-0.0067,0.4124,1.2947,-9.7076,1.8938,7.1524,172.5986,0.0000,0.0000,0.0000,0.0000,0.0000,break_time
186428,-0.2350,0.0619,-0.0198,0.3669,1.3025,-9.7489,1.9181,7.1977,172.5485,0.0000,0.0000,0.0000,0.0000,0.0000,break_time
186544,-0.2093,0.0604,0.0059,0.3406,1.2696,-9.7621,1.9244,7.2185,172.5268,0.0000,0.0000,0.0000,0.0000,0.0000,break_time
186660,-0.2491,0.0680,-0.0127,0.3071,1.2115,-9.7238,1.9115,7.2065,172.5417,0.0000,0.0000,0.0000,0.0000,0.0000,break_time
186776,-0.2087,0.0612,0.0553,0.3154,1.2043,-9.7759,1.9038,7.1877,172.5618,0.0000,0.0000,0.0000,0.0000,0.0000,break_time
186892,-0.2026,0.0717,-0.0117,0.3125,1.2139,-9.7070,1.8964,7.1814,172.5698,0.0000,0.0000,0.0000,0.0000,0.0000,break_time
187008,-0.1684,0.0736,0.0648,0.3274,1.2325,-9.7549,1.8974,7.1830,172.5681,0.0000,0.0000,0.0000,0.0000,0.0000,break_time
187124,-0.2045,0.0652,0.0322,0.3011,1.2061,-9.7436,1.8834,7.1700,172.5842,0.0000,0.0000,0.0000,0.0000,0.0000,break_time
187240,-0.2037,0.0702,0.0504,0.3196,1.2217,-9.7675,1.8810,7.1655,172.5892,0.0000,0.0000,0.0000,0.0000,0.0000,break_time
187356,-0.2271,0.0560,-0.0319,0.3352,1.2223,-9.7436,1.8884,7.1636,172.5892,0.0000,0.0000,0.0000,0.0000,0.0000,break_time
187472,-0.2108,0.0619,-0.0082,0.3466,1.2480,-9.7741,1.9010,7.1745,172.5754,0.0000,0.0000,0.0000,0.0000,0.0000,break_time
187588,-0.2139,0.0391,0.0502,0.2759,1.2073,-9.7615,1.8716,7.1618,172.5952,0.0000,0.0000,0.0000,0.0000,0.0000,break_time
187704,-0.2264,0.0611,0.0164,0.2765,1.1906,-9.7675,1.8454,7.1403,172.6227,0.0000,0.0000,0.0000,0.0000,0.0000,break_time
187820,-0.2078,0.0353,0.0168,0.3801,1.2091,-9.7154,1.8831,7.1352,172.6180,0.0000,0.0000,0.0000,0.0000,0.0000,break_time
187936,-0.1797,0.0755,-0.0093,0.2538,1.2091,-9.7370,1.8430,7.1293,172.6339,0.0000,0.0000,0.0000,0.0000,0.0000,break_time
188052,-0.1892,0.0757,0.0125,0.3083,1.1780,-9.7645,1.8382,7.1039,172.6597,0.0000,0.0000,0.0000,0.0000,0.0000,break_time
188168,-0.1924,0.0623,0.0149,0.3226,1.2384,-9.7070,1.8432,7.1201,172.6428,0.0000,0.0000,0.0000,0.0000,0.0000,break_time
188284,-0.2011,0.0549,-0.0320,0.3328,1.2193,-9.7561,1.8528,7.1201,172.6404,0.0000,0.0000,0.0000,0.0000,0.0000,break_time
188400,-0.1873,0.0459,0.0537,0.3077,1.1953,-9.7340,1.8472,7.1078,172.6537,0.0000,0.0000,0.0000,0.0000,0.0000,break_time
188516,-0.1964,0.0988,-0.0112,0.3238,1.2355,-9.7501,1.8512,7.1188,172.6420,0.0000,0.0000,0.0000,0.0000,0.0000,break_time
188632,-0.2102,0.0913,-0.0832,0.3190,1.2259,-9.7256,1.8525,7.1249,172.6357,0.0000,0.0000,0.0000,0.0000,0.0000,break_time
188748,-0.2195,0.0466,0.0378,0.3178,1.2343,-9.7627,1.8522,7.1326,172.6284,0.0000,0.0000,0.0000,0.0000,0.0000,break_time
188864,-0.2198,0.0753,-0.0008,0.3178,1.2097,-9.7382,1.8525,7.1271,172.6336,0.0000,0.0000,0.0000,0.0000,0.0000,break_time
188980,-0.2014,0.0577,0.1145,0.3532,1.2289,-9.7699,1.8727,7.1309,172.6248,0.0000,0.0000,0.0000,0.0000,0.0000,nothing
189096,-0.2063,0.0518,-0.0338,0.2927,1.2366,-9.7471,1.8561,7.1405,172.6198,0.0000,0.0000,0.0000,0.0000,0.0000,nothing
189212,-0.1879,0.0548,0.0773,0.3071,1.2151,-9.7717,1.8491,7.1349,172.6269,0.0000,0.0000,0.0000,0.0000,0.0000,nothing
189328,-0.1954,0.0543,0.0074,0.3041,1.2211,-9.7358,1.8417,7.1360,172.6278,0.0000,0.0000,0.0000,0.0000,0.0000,nothing
189444,-0.2244,0.0447,0.0239,0.3334,1.1792,-9.7316,1.8523,7.1129,172.6474,0.0000,0.0000,0.0000,0.0000,0.0000,nothing
189560,-0.2129,0.0701,-0.0075,0.2688,1.2097,-9.7519,1.8237,7.1085,172.6589,0.0000,0.0000,0.0000,0.0000,0.0000,nothing
189676,-0.1952,0.0476,0.0757,0.3154,1.2085,-9.7519,1.8252,7.1037,172.6632,0.0000,0.0000,0.0000,0.0000,0.0000,nothing
189792,-0.1940,0.0506,0.0699,0.3364,1.2175,-9.7831,1.8382,7.1023,172.6613,0.0000,0.0000,0.0000,0.0000,0.0000,nothing
189908,-0.1989,0.0739,-0.0139,0.2945,1.2456,-9.7418,1.8261,7.1204,172.6468,0.0000,0.0000,0.0000,0.0000,0.0000,nothing
190024,-0.1930,0.0657,-0.0022,0.3131,1.2235,-9.7693,1.8256,7.1219,172.6455,0.0000,0.0000,0.0000,0.0000,0.0000,nothing
190140,-0.2005,0.0686,-0.0229,0.3424,1.2223,-9.7424,1.8428,7.1243,172.6388,0.0000,0.0000,0.0000,0.0000,0.0000,nothing
190256,-0.1999,0.0803,-0.0065,0.3502,1.2097,-9.7453,1.8627,7.1191,172.6388,0.0000,0.0000,0.0000,0.0000,0.0000,nothing
190372,-0.2294,0.0901,-0.0162,0.2574,1.2097,-9.7274,1.8269,7.1158,172.6510,0.0000,0.0000,0.0000,0.0000,0.0000,nothing
190488,-0.1960,0.0633,-0.0224,0.3310,1.1930,-9.7759,1.8367,7.0996,172.6643,0.0000,0.0000,0.0000,0.0000,0.0000,nothing
190604,-0.1958,0.0556,-0.0237,0.3089,1.2265,-9.7525,1.8330,7.1060,172.6590,0.0000,0.0000,0.0000,0.0000,0.0000,nothing
190720,-0.1823,0.0566,0.0369,0.3065,1.2091,-9.7286,1.8288,7.1036,172.6625,0.0000,0.0000,0.0000,0.0000,0.0000,nothing
190836,-0.2094,0.1012,0.0254,0.3178,1.2181,-9.7711,1.8308,7.1034,172.6621,0.0000,0.0000,0.0000,0.0000,0.0000,nothing
190952,-0.1911,0.0758,0.0170,0.3160,1.2450,-9.7364,1.8321,7.1214,172.6443,0.0000,0.0000,0.0000,0.0000,0.0000,nothing
191068,-0.2039,0.0556,-0.0042,0.3849,1.2211,-9.7621,1.8730,7.1217,172.6336,0.0000,0.0000,0.0000,0.0000,0.0000,nothing
191184,-0.2395,0.0553,0.0048,0.2724,1.2390,-9.7675,1.8441,7.1322,172.6308,0.0000,0.0000,0.0000,0.0000,0.0000,nothing
191300,-0.2067,0.0454,-0.0224,0.3137,1.2283,-9.7561,1.8424,7.1362,172.6274,0.0000,0.0000,0.0000,0.0000,0.0000,nothing
191416,-0.1985,0.0838,0.0318,0.3472,1.2157,-9.7250,1.8610,7.1347,172.6241,0.0000,0.0000,0.0000,0.0000,0.0000,nothing
191532,-0.1922,0.0731,-0.0217,0.2741,1.2361,-9.7424,1.8348,7.1440,172.6217,0.0000,0.0000,0.0000,0.0000,0.0000,nothing
191648,-0.1744,0.0926,-0.0747,0.3496,1.2025,-9.7292,1.8555,7.1338,172.6264,0.0000,0.0000,0.0000,0.0000,0.0000,nothing
191764,-0.2202,0.0658,0.0618,0.2747,1.2103,-9.6885,1.8313,7.1322,172.6341,0.0000,0.0000,0.0000,0.0000,0.0000,nothing
191880,-0.2011,0.0630,0.0194,0.3579,1.1732,-9.7477,1.8570,7.1048,172.6541,0.0000,0.0000,0.0000,0.0000,0.0000,nothing
191996,-0.2169,0.0562,0.0134,0.3406,1.1906,-9.7412,1.8700,7.0907,172.6644,0.0000,0.0000,0.0000,0.0000,0.0000,nothing
192112,-0.2072,0.0613,0.0005,0.3262,1.2061,-9.7370,1.8735,7.0874,172.6667,0.0000,0.0000,0.0000,0.0000,0.0000,nothing
192228,-0.2007,0.0676,-0.0045,0.2777,1.2085,-9.7471,1.8481,7.0852,172.6754,0.0000,0.0000,0.0000,0.0000,0.0000,nothing
192344,-0.2239,0.0322,-0.0466,0.3214,1.2127,-9.7394,1.8508,7.0860,172.6738,0.0000,0.0000,0.0000,0.0000,0.0000,nothing
192460,-0.1981,0.0712,0.0289,0.3029,1.2073,-9.7352,1.8426,7.0840,172.6779,0.0000,0.0000,0.0000,0.0000,0.0000,nothing
192576,-0.2003,0.0763,-0.0025,0.3178,1.2187,-9.7801,1.8431,7.0856,172.6763,0.0000,0.0000,0.0000,0.0000,0.0000,nothing
192692,-0.2168,0.0668,-0.0462,0.3424,1.2265,-9.7418,1.8585,7.0942,172.6640,0.0000,0.0000,0.0000,0.0000,0.0000,nothing
192808,-0.2068,0.0395,-0.0534,0.3154,1.1810,-9.7555,1.8565,7.0746,172.6834,0.0000,0.0000,0.0000,0.0000,0.0000,nothing
192924,-0.1997,0.0802,0.0115,0.2478,1.2594,-9.7298,1.8156,7.1044,172.6649,0.0000,0.0000,0.0000,0.0000,0.0000,nothing
193040,-0.2364,0.0492,-0.0247,0.3472,1.2145,-9.7849,1.8358,7.1011,172.6631,0.0000,0.0000,0.0000,0.0000,0.0000,nothing
193156,-0.2106,0.0717,0.0244,0.2789,1.2582,-9.7412,1.8149,7.1266,172.6436,0.0000,0.0000,0.0000,0.0000,0.0000,nothing
193272,-0.2034,0.0714,0.0252,0.3280,1.1720,-9.7436,1.8248,7.0995,172.6674,0.0000,0.0000,0.0000,0.0000,0.0000,nothing
193388,-0.1985,0.0744,0.0491,0.2951,1.2253,-9.7801,1.8138,7.1033,172.6664,0.0000,0.0000,0.0000,0.0000,0.0000,nothing
193504,-0.1860,0.0589,0.0063,0.3280,1.2133,-9.7394,1.8238,7.1027,172.6645,0.0000,0.0000,0.0000,0.0000,0.0000,nothing
193620,-0.1861,0.0570,-0.0010,0.3089,1.1720,-9.7573,1.8214,7.0770,172.6900,0.0000,0.0000,0.0000,0.0000,0.0000,nothing
193736,-0.1900,0.0465,0.0090,0.3208,1.1924,-9.7424,1.8265,7.0667,172.6987,0.0000,0.0000,0.0000,0.0000,0.0000,nothing
193852,-0.2174,0.0613,0.0104,0.3472,1.2181,-9.7471,1.8463,7.0720,172.6886,0.0000,0.0000,0.0000,0.0000,0.0000,nothing
193968,-0.2545,0.0330,0.0189,0.3789,1.0738,-9.6927,1.8839,6.9970,172.7514,0.0000,0.0000,0.0000,0.0000,0.0000,สอง
194084,-0.1581,-0.0072,-0.0359,-0.2478,1.0738,-9.9489,1.5481,6.9127,172.9144,0.0000,0.0000,0.0000,0.0000,0.0000,สอง
194200,-0.0294,0.0050,-0.0397,0.2729,1.3360,-9.6185,1.5543,7.0108,172.8173,0.0000,0.0000,0.0000,0.0000,0.0000,สอง
194316,-0.2005,0.0751,0.0304,0.2819,1.3917,-9.6568,1.5643,7.1287,172.6999,0.0000,0.0000,0.0000,0.0000,0.0000,สอง
194432,-0.3381,0.1324,0.0239,0.3645,1.3085,-9.7286,1.6206,7.1814,172.6361,0.0000,0.0000,0.0000,0.0000,0.0000,สอง
194548,-0.2483,0.0585,0.0052,0.2915,1.1810,-9.7274,1.6289,7.1552,172.6598,0.0000,0.0000,0.0000,0.0000,0.0000,สอง
194664,-0.1958,0.0589,0.0668,0.2855,1.1457,-9.7274,1.6330,7.1112,172.7018,0.0000,0.0000,0.0000,0.0000,0.0000,สอง
194780,-0.1506,0.0556,0.0179,0.2981,1.1953,-9.7424,1.6437,7.0993,172.7110,0.0000,0.0000,0.0000,0.0000,0.0000,สอง
194896,-0.1400,0.0571,-0.0109,0.3178,1.2169,-9.7280,1.6650,7.1020,172.7035,0.0000,0.0000,0.0000,0.0000,0.0000,สอง
195012,-0.2045,0.0679,0.0138,0.3178,1.2115,-9.7346,1.6840,7.1008,172.7002,0.0000,0.0000,0.0000,0.0000,0.0000,สอง
195128,-0.2024,0.1042,0.0413,0.3011,1.2630,-9.7489,1.6911,7.1286,172.6715,0.0000,0.0000,0.0000,0.0000,0.0000,สอง
195244,-0.2053,0.0604,0.0120,0.3274,1.2169,-9.7621,1.7126,7.1259,172.6691,0.0000,0.0000,0.0000,0.0000,0.0000,สอง
195360,-0.2022,0.0740,0.0233,0.2448,1.2001,-9.7262,1.6845,7.1166,172.6848,0.0000,0.0000,0.0000,0.0000,0.0000,สอง
195476,-0.2011,0.0593,0.0333,0.3059,1.2097,-9.7555,1.6943,7.1114,172.6875,0.0000,0.0000,0.0000,0.0000,0.0000,สอง
195592,-0.1989,0.0504,-0.0094,0.3196,1.2049,-9.7184,1.7118,7.1067,172.6880,0.0000,0.0000,0.0000,0.0000,0.0000,สอง
195708,-0.2022,0.0440,0.0105,0.3220,1.1876,-9.7232,1.7289,7.0920,172.6982,0.0000,0.0000,0.0000,0.0000,0.0000,สอง
195824,-0.1900,0.0468,-0.0301,0.3029,1.2271,-9.7777,1.7321,7.0978,172.6918,0.0000,0.0000,0.0000,0.0000,0.0000,สอง
195940,-0.2079,0.0507,0.0249,0.3352,1.2181,-9.7340,1.7545,7.1009,172.6834,0.0000,0.0000,0.0000,0.0000,0.0000,สอง
196056,-0.2054,0.0657,0.0035,0.3154,1.1971,-9.7436,1.7631,7.0909,172.6910,0.0000,0.0000,0.0000,0.0000,0.0000,สอง
196172,-0.2117,0.0571,0.0151,0.3101,1.2229,-9.7705,1.7672,7.0949,172.6862,0.0000,0.0000,0.0000,0.0000,0.0000,สอง
196288,-0.1861,0.0458,0.0176,0.3238,1.1983,-9.7388,1.7795,7.0865,172.6913,0.0000,0.0000,0.0000,0.0000,0.0000,สอง
196404,-0.1663,0.0748,-0.0360,0.3256,1.2055,-9.7465,1.7914,7.0825,172.6922,0.0000,0.0000,0.0000,0.0000,0.0000,สอง
196520,-0.2277,0.0728,-0.0228,0.3119,1.2109,-9.7513,1.7941,7.0818,172.6922,0.0000,0.0000,0.0000,0.0000,0.0000,สอง
196636,-0.2060,0.0615,-0.0093,0.3316,1.2211,-9.7244,1.8084,7.0889,172.6817,0.0000,0.0000,0.0000,0.0000,0.0000,สอง
196752,-0.1872,0.0783,-0.0042,0.3226,1.1846,-9.7699,1.8154,7.0709,172.6974,0.0000,0.0000,0.0000,0.0000,0.0000,สอง
196868,-0.2024,0.0701,-0.0008,0.3388,1.2325,-9.7495,1.8313,7.0839,172.6809,0.0000,0.0000,0.0000,0.0000,0.0000,สอง
196984,-0.2061,0.0503,0.0604,0.3071,1.2217,-9.7705,1.8268,7.0879,172.6781,0.0000,0.0000,0.0000,0.0000,0.0000,สอง
197100,-0.2174,0.0541,0.0187,0.2999,1.2319,-9.7789,1.8184,7.0968,172.6717,0.0000,0.0000,0.0000,0.0000,0.0000,สอง
197216,-0.2038,0.0652,0.0898,0.3699,1.3773,-9.7364,1.8520,7.1918,172.5712,0.0000,0.0000,0.0000,0.0000,0.0000,สอง
197332,-0.1776,0.0729,-0.0020,0.3274,1.1828,-9.7501,1.8577,7.1639,172.5967,0.0000,0.0000,0.0000,0.0000,0.0000,สอง
197448,-0.1854,0.0503,-0.0080,0.2867,1.2253,-9.7669,1.8388,7.1623,172.6031,0.0000,0.0000,0.0000,0.0000,0.0000,สอง
197564,-0.2345,0.0859,-0.0128,0.3131,1.2307,-9.7430,1.8375,7.1656,172.6002,0.0000,0.0000,0.0000,0.0000,0.0000,สอง
197680,-0.1906,0.0464,-0.0440,0.2885,1.2253,-9.7459,1.8220,7.1653,172.6043,0.0000,0.0000,0.0000,0.0000,0.0000,สอง
197796,-0.2057,0.0579,0.0733,0.3472,1.2408,-9.7226,1.8426,7.1756,172.5892,0.0000,0.0000,0.0000,0.0000,0.0000,สอง
197912,-0.2044,0.0858,0.0184,0.3005,1.2390,-9.7465,1.8335,7.1822,172.5851,0.0000,0.0000,0.0000,0.0000,0.0000,สอง
198028,-0.1834,0.0753,-0.0260,0.3406,1.2085,-9.7525,1.8487,7.1699,172.5932,0.0000,0.0000,0.0000,0.0000,0.0000,สอง
198144,-0.2170,0.0784,0.0158,0.3077,1.2139,-9.7376,1.8434,7.1632,172.6010,0.0000,0.0000,0.0000,0.0000,0.0000,สอง
198260,-0.2132,0.0883,-0.0301,0.3107,1.2067,-9.7298,1.8405,7.1535,172.6111,0.0000,0.0000,0.0000,0.0000,0.0000,สอง
198376,-0.2035,0.0763,-0.0218,0.3388,1.2241,-9.7244,1.8544,7.1552,172.6060,0.0000,0.0000,0.0000,0.0000,0.0000,สอง
198492,-0.1752,0.0551,0.0474,0.2885,1.2109,-9.7400,1.8374,7.1480,172.6172,0.0000,0.0000,0.0000,0.0000,0.0000,สอง
198608,-0.2318,0.0962,-0.0278,0.3172,1.2121,-9.7088,1.8393,7.1445,172.6201,0.0000,0.0000,0.0000,0.0000,0.0000,สอง
198724,-0.2059,0.0604,0.0139,0.3735,1.2570,-9.7274,1.8735,7.1658,172.5908,0.0000,0.0000,0.0000,0.0000,0.0000,สอง
198840,-0.2033,0.0698,-0.0086,0.2993,1.2396,-9.7292,1.8609,7.1750,172.5851,0.0000,0.0000,0.0000,0.0000,0.0000,สอง
198956,-0.2089,0.0605,-0.0150,0.3029,1.2001,-9.7447,1.8515,7.1593,172.6027,0.0000,0.0000,0.0000,0.0000,0.0000,สอง
199072,-0.2123,0.0743,-0.0202,0.3370,1.2139,-9.7507,1.8628,7.1526,172.6064,0.0000,0.0000,0.0000,0.0000,0.0000,สอง
199188,-0.1730,0.0274,0.0136,0.2712,1.1953,-9.7298,1.8350,7.1375,172.6280,0.0000,0.0000,0.0000,0.0000,0.0000,สอง
199304,-0.1924,0.0608,0.0292,0.3095,1.2115,-9.7358,1.8322,7.1327,172.6334,0.0000,0.0000,0.0000,0.0000,0.0000,สอง
199420,-0.1969,0.0729,-0.0544,0.3526,1.2492,-9.7765,1.8539,7.1472,172.6138,0.0000,0.0000,0.0000,0.0000,0.0000,สอง
199536,-0.2153,0.0650,0.0038,0.3274,1.1989,-9.7190,1.8600,7.1354,172.6237,0.0000,0.0000,0.0000,0.0000,0.0000,สอง
199652,-0.1919,0.0541,-0.0450,0.2706,1.2169,-9.7412,1.8319,7.1336,172.6325,0.0000,0.0000,0.0000,0.0000,0.0000,สอง
199768,-0.2004,0.0727,0.0090,0.3645,1.2199,-9.7124,1.8619,7.1357,172.6230,0.0000,0.0000,0.0000,0.0000,0.0000,สอง
199884,-0.2082,0.0594,0.0503,0.2472,1.2372,-9.7525,1.8197,7.1449,172.6247,0.0000,0.0000,0.0000,0.0000,0.0000,สอง
200000,-0.2438,0.0630,-0.0600,0.3532,1.2444,-9.7525,1.8435,7.1571,172.6068,0.0000,0.0000,0.0000,0.0000,0.0000,สอง
200116,-0.2180,0.0586,-0.0209,0.1604,1.2205,-9.7160,1.7532,7.1574,172.6288,0.0000,0.0000,0.0000,0.0000,0.0000,สอง
200232,-0.2102,0.0616,0.0101,0.3358,1.1942,-9.7232,1.7742,7.1414,172.6393,0.0000,0.0000,0.0000,0.0000,0.0000,สอง
200348,-0.2140,0.0424,-0.0262,0.2969,1.2265,-9.7609,1.7696,7.1431,172.6387,0.0000,0.0000,0.0000,0.0000,0.0000,สอง
200464,-0.1930,0.0476,0.0037,0.3196,1.1846,-9.7567,1.7789,7.1207,172.6582,0.0000,0.0000,0.0000,0.0000,0.0000,สอง
200580,-0.2120,0.0753,-0.0125,0.3298,1.2295,-9.7268,1.7937,7.1286,172.6469,0.0000,0.0000,0.0000,0.0000,0.0000,สอง
200696,-0.1932,0.0639,0.0132,0.3059,1.2115,-9.7693,1.7923,7.1223,172.6534,0.0000,0.0000,0.0000,0.0000,0.0000,สอง
200812,-0.1823,0.0755,0.0540,0.3148,1.2001,-9.7160,1.7973,7.1139,172.6603,0.0000,0.0000,0.0000,0.0000,0.0000,สอง
200928,-0.1793,0.0506,-0.0191,0.3143,1.2115,-9.7585,1.8006,7.1098,172.6634,0.0000,0.0000,0.0000,0.0000,0.0000,สอง
201044,-0.2008,0.0890,-0.0344,0.3573,1.2552,-9.7196,1.8293,7.1342,172.6326,0.0000,0.0000,0.0000,0.0000,0.0000,สอง
201160,-0.2011,0.0473,-0.0085,0.3388,1.1924,-9.7513,1.8439,7.1175,172.6452,0.0000,0.0000,0.0000,0.0000,0.0000,สอง
201276,-0.1974,0.0720,-0.0292,0.2903,1.2073,-9.7274,1.8292,7.1129,172.6533,0.0000,0.0000,0.0000,0.0000,0.0000,สอง
201392,-0.2206,0.0825,0.0264,0.3496,1.1942,-9.7567,1.8500,7.0990,172.6615,0.0000,0.0000,0.0000,0.0000,0.0000,สอง
201508,-0.2049,0.0626,-0.0025,0.3202,1.2169,-9.7495,1.8516,7.1002,172.6600,0.0000,0.0000,0.0000,0.0000,0.0000,สอง
201624,-0.1851,0.0390,-0.0116,0.2640,1.2289,-9.7477,1.8204,7.1084,172.6599,0.0000,0.0000,0.0000,0.0000,0.0000,สอง
201740,-0.2033,0.0378,0.0417,0.3490,1.2097,-9.7860,1.8411,7.1018,172.6610,0.0000,0.0000,0.0000,0.0000,0.0000,สอง
201856,-0.2378,0.0419,-0.0762,0.3376,1.2265,-9.7477,1.8538,7.1083,172.6515,0.0000,0.0000,0.0000,0.0000,0.0000,สอง
201972,-0.2199,0.0649,0.0404,0.3250,1.2223,-9.7663,1.8576,7.1105,172.6485,0.0000,0.0000,0.0000,0.0000,0.0000,สอง
202088,-0.2298,0.0795,-0.0083,0.3119,1.2145,-9.7447,1.8537,7.1095,172.6504,0.0000,0.0000,0.0000,0.0000,0.0000,สอง
202204,-0.1999,0.0544,-0.0419,0.3550,1.2151,-9.7657,1.8749,7.1073,172.6470,0.0000,0.0000,0.0000,0.0000,0.0000,สอง
202320,-0.1933,0.0589,-0.0112,0.2466,1.2313,-9.7436,1.8313,7.1166,172.6492,0.0000,0.0000,0.0000,0.0000,0.0000,สอง
202436,-0.1775,0.0496,0.0690,0.2975,1.1870,-9.7328,1.8220,7.1000,172.6676,0.0000,0.0000,0.0000,0.0000,0.0000,สอง
202552,-0.1907,0.0772,-0.0822,0.4154,1.2055,-9.7609,1.8817,7.0934,172.6587,0.0000,0.0000,0.0000,0.0000,0.0000,สอง
202668,-0.2232,0.0823,-0.0334,0.3202,1.1858,-9.7459,1.8804,7.0774,172.6746,0.0000,0.0000,0.0000,0.0000,0.0000,สอง
202784,-0.1860,0.0630,-0.0127,0.2987,1.1912,-9.7034,1.8674,7.0692,172.6858,0.0000,0.0000,0.0000,0.0000,0.0000,สอง
202900,-0.1810,0.0454,0.0547,0.3526,1.2259,-9.7717,1.8857,7.0769,172.6737,0.0000,0.0000,0.0000,0.0000,0.0000,สอง
203016,-0.1831,0.0660,-0.0641,0.3256,1.2013,-9.7430,1.8871,7.0718,172.6783,0.0000,0.0000,0.0000,0.0000,0.0000,สอง
203132,-0.2084,0.0499,0.0057,0.2646,1.2450,-9.7298,1.8530,7.0935,172.6660,0.0000,0.0000,0.0000,0.0000,0.0000,สอง
203248,-0.2020,0.0894,-0.0219,0.3089,1.2259,-9.7465,1.8478,7.1007,172.6604,0.0000,0.0000,0.0000,0.0000,0.0000,สอง
203364,-0.1970,0.0755,-0.0359,0.3424,1.2319,-9.7334,1.8628,7.1115,172.6461,0.0000,0.0000,0.0000,0.0000,0.0000,สอง
203480,-0.2084,0.0421,-0.0067,0.3184,1.2205,-9.7382,1.8624,7.1143,172.6435,0.0000,0.0000,0.0000,0.0000,0.0000,สอง
203596,-0.1975,0.0416,0.0185,0.3029,1.2390,-9.7627,1.8524,7.1259,172.6349,0.0000,0.0000,0.0000,0.0000,0.0000,สอง
203712,-0.1791,0.0750,-0.0318,0.2939,1.2085,-9.7256,1.8390,7.1213,172.6427,0.0000,0.0000,0.0000,0.0000,0.0000,สอง
203828,-0.1909,0.0635,0.0230,0.3370,1.2390,-9.7304,1.8518,7.1344,172.6267,0.0000,0.0000,0.0000,0.0000,0.0000,สอง
203944,-0.1971,0.0761,0.0123,0.3322,1.2259,-9.7394,1.8605,7.1380,172.6211,0.0000,0.0000,0.0000,0.0000,0.0000,สอง
204060,-0.1960,0.0510,-0.0075,0.3137,1.2181,-9.7603,1.8571,7.1352,172.6247,0.0000,0.0000,0.0000,0.0000,0.0000,สอง
204176,-0.2072,0.0465,0.0090,0.3256,1.2295,-9.7633,1.8609,7.1390,172.6200,0.0000,0.0000,0.0000,0.0000,0.0000,สอง
204292,-0.2251,0.0620,-0.0204,0.3340,1.2301,-9.7621,1.8692,7.1429,172.6141,0.0000,0.0000,0.0000,0.0000,0.0000,สอง
204408,-0.2080,0.0859,-0.0299,0.3071,1.2217,-9.7250,1.8618,7.1442,172.6147,0.0000,0.0000,0.0000,0.0000,0.0000,สอง
204524,-0.2275,0.0035,-0.0185,0.3125,1.2181,-9.7436,1.8579,7.1420,172.6178,0.0000,0.0000,0.0000,0.0000,0.0000,สอง
204640,-0.1997,0.0449,-0.0053,0.3478,1.2247,-9.7489,1.8748,7.1434,172.6122,0.0000,0.0000,0.0000,0.0000,0.0000,สอง
204756,-0.2059,0.0570,0.0071,0.3304,1.2127,-9.7376,1.8802,7.1386,172.6155,0.0000,0.0000,0.0000,0.0000,0.0000,สอง
204872,-0.2399,0.0515,0.0500,0.3137,1.2271,-9.7292,1.8753,7.1432,172.6123,0.0000,0.0000,0.0000,0.0000,0.0000,สอง
204988,-0.2061,0.0684,0.0004,0.2652,1.2091,-9.7418,1.8426,7.1361,172.6274,0.0000,0.0000,0.0000,0.0000,0.0000,สอง
205104,-0.1816,0.0917,-0.0068,0.3382,1.2085,-9.7543,1.8554,7.1284,172.6317,0.0000,0.0000,0.0000,0.0000,0.0000,สอง
205220,-0.1755,0.0813,-0.0082,0.2867,1.2235,-9.7430,1.8371,7.1310,172.6338,0.0000,0.0000,0.0000,0.0000,0.0000,สอง
205336,-0.2363,0.0905,0.0157,0.3113,1.2396,-9.7304,1.8351,7.1435,172.6221,0.0000,0.0000,0.0000,0.0000,0.0000,สอง
205452,-0.2124,0.0725,-0.0146,0.3262,1.2163,-9.7358,1.8420,7.1409,172.6230,0.0000,0.0000,0.0000,0.0000,0.0000,สอง
205568,-0.2080,0.0533,0.0168,0.3220,1.2025,-9.7537,1.8455,7.1293,172.6333,0.0000,0.0000,0.0000,0.0000,0.0000,สอง
205684,-0.2067,0.0720,-0.0414,0.3538,1.2366,-9.7154,1.8678,7.1412,172.6161,0.0000,0.0000,0.0000,0.0000,0.0000,สอง
205800,-0.2095,0.0646,0.0228,0.2765,1.2402,-9.7525,1.8421,7.1516,172.6126,0.0000,0.0000,0.0000,0.0000,0.0000,สอง
205916,-0.2228,0.0747,-0.0419,0.3035,1.2349,-9.7645,1.8345,7.1569,172.6094,0.0000,0.0000,0.0000,0.0000,0.0000,สอง
206032,-0.1934,0.0637,0.0697,0.3490,1.2181,-9.7723,1.8540,7.1512,172.6099,0.0000,0.0000,0.0000,0.0000,0.0000,สอง
206148,-0.2150,0.0631,-0.0198,0.3071,1.2414,-9.7364,1.8478,7.1624,172.6007,0.0000,0.0000,0.0000,0.0000,0.0000,สอง
206264,-0.1947,0.0413,-0.0237,0.3585,1.1947,-9.7537,1.8720,7.1440,172.6123,0.0000,0.0000,0.0000,0.0000,0.0000,สอง
206380,-0.1925,0.0699,-0.0222,0.2999,1.2325,-9.7388,1.8598,7.1505,172.6091,0.0000,0.0000,0.0000,0.0000,0.0000,สอง
206496,-0.1930,0.0442,0.0596,0.3232,1.2001,-9.7944,1.8614,7.1336,172.6251,0.0000,0.0000,0.0000,0.0000,0.0000,สอง
206612,-0.2185,0.0634,0.0285,0.3089,1.2414,-9.7639,1.8550,7.1445,172.6162,0.0000,0.0000,0.0000,0.0000,0.0000,สอง
206728,-0.2251,0.0559,-0.0341,0.4489,1.2450,-9.7573,1.9309,7.1565,172.5849,0.0000,0.0000,0.0000,0.0000,0.0000,สอง
206844,-0.2024,0.0858,0.0215,0.2993,1.2145,-9.7657,1.9120,7.1495,172.5967,0.0000,0.0000,0.0000,0.0000,0.0000,สอง
206960,-0.1967,0.0710,0.0483,0.3226,1.2289,-9.7507,1.9088,7.1524,172.5947,0.0000,0.0000,0.0000,0.0000,0.0000,สอง
207076,-0.2080,0.0634,0.0177,0.3232,1.2289,-9.7507,1.9063,7.1551,172.5927,0.0000,0.0000,0.0000,0.0000,0.0000,สอง
207192,-0.1963,0.0750,0.0102,0.1814,1.1876,-9.7382,1.8218,7.1349,172.6339,0.0000,0.0000,0.0000,0.0000,0.0000,สอง
207308,-0.1794,0.0619,0.0098,0.3125,1.1924,-9.7424,1.8219,7.1188,172.6494,0.0000,0.0000,0.0000,0.0000,0.0000,สอง
207424,-0.1936,0.0727,0.0116,0.3268,1.2253,-9.7459,1.8303,7.1231,172.6431,0.0000,0.0000,0.0000,0.0000,0.0000,สอง
207540,-0.1605,0.0608,-0.0346,0.3472,1.1977,-9.7400,1.8499,7.1114,172.6495,0.0000,0.0000,0.0000,0.0000,0.0000,สอง
207656,-0.2038,0.0424,0.0349,0.3220,1.2420,-9.7094,1.8533,7.1288,172.6318,0.0000,0.0000,0.0000,0.0000,0.0000,สอง
207772,-0.2124,0.1017,-0.0344,0.2795,1.2331,-9.7280,1.8313,7.1380,172.6284,0.0000,0.0000,0.0000,0.0000,0.0000,สอง
207888,-0.2149,0.0506,0.0862,0.3412,1.2025,-9.7388,1.8473,7.1277,172.6344,0.0000,0.0000,0.0000,0.0000,0.0000,สอง
208004,-0.1917,0.0665,-0.0248,0.2747,1.1732,-9.7340,1.8231,7.1020,172.6654,0.0000,0.0000,0.0000,0.0000,0.0000,สอง
208120,-0.2008,0.0683,0.0010,0.3178,1.2115,-9.7579,1.8260,7.0991,172.6674,0.0000,0.0000,0.0000,0.0000,0.0000,สอง
208236,-0.1885,0.0444,0.0435,0.3232,1.2558,-9.7489,1.8317,7.1229,172.6430,0.0000,0.0000,0.0000,0.0000,0.0000,สอง
208352,-0.1470,0.0713,0.0146,0.3514,1.2067,-9.7495,1.8534,7.1157,172.6445,0.0000,0.0000,0.0000,0.0000,0.0000,สอง
208468,-0.2258,0.0570,-0.0109,0.3226,1.2564,-9.7310,1.8564,7.1394,172.6208,0.0000,0.0000,0.0000,0.0000,0.0000,สอง
208584,-0.2035,0.0712,0.0563,0.3148,1.2420,-9.7639,1.8539,7.1501,172.6111,0.0000,0.0000,0.0000,0.0000,0.0000,สอง
208700,-0.2050,0.0038,0.0319,0.3005,1.1888,-9.7376,1.8440,7.1308,172.6322,0.0000,0.0000,0.0000,0.0000,0.0000,สอง
208816,-0.2169,0.0687,0.0773,0.3388,1.2061,-9.7872,1.8564,7.1198,172.6398,0.0000,0.0000,0.0000,0.0000,0.0000,สอง
208932,-0.1993,0.0491,-0.0297,0.3364,1.2085,-9.7465,1.8670,7.1142,172.6424,0.0000,0.0000,0.0000,0.0000,0.0000,สอง
209048,-0.1945,0.0714,0.0183,0.3298,1.2450,-9.7352,1.8727,7.1312,172.6246,0.0000,0.0000,0.0000,0.0000,0.0000,สอง
209164,-0.2172,0.0729,-0.0019,0.3538,1.2450,-9.7028,1.8925,7.1487,172.6025,0.0000,0.0000,0.0000,0.0000,0.0000,สอง
209280,-0.2333,0.0769,0.0479,0.2706,1.2007,-9.7747,1.8605,7.1339,172.6251,0.0000,0.0000,0.0000,0.0000,0.0000,สอง
209396,-0.1993,0.0709,0.0187,0.3370,1.1552,-9.7418,1.8712,7.0964,172.6586,0.0000,0.0000,0.0000,0.0000,0.0000,สอง
209512,-0.1929,0.0491,0.0477,0.3113,1.2133,-9.7735,1.8651,7.0941,172.6624,0.0000,0.0000,0.0000,0.0000,0.0000,สอง
209628,-0.1082,0.2388,-0.0720,0.4872,0.8153,-9.2354,1.9738,6.8989,172.8217,0.0000,0.0000,0.0000,0.0000,0.0000,break_time
209744,-0.3373,0.0724,0.0112,0.2520,1.5329,-9.8818,1.9197,7.0946,172.6477,0.0000,0.0000,0.0000,0.0000,0.0000,break_time
209860,-0.4069,0.1254,0.0020,0.1874,1.3953,-9.7585,1.8362,7.1993,172.5678,0.0000,0.0000,0.0000,0.0000,0.0000,break_time
209976,-0.2885,0.1084,0.0868,0.3137,1.0936,-9.7316,1.8360,7.1203,172.6444,0.0000,0.0000,0.0000,0.0000,0.0000,break_time
210092,-0.1819,0.0637,-0.0440,0.2562,1.1361,-9.7753,1.8014,7.0708,172.7011,0.0000,0.0000,0.0000,0.0000,0.0000,break_time
210208,-0.1479,0.0462,0.0334,0.3460,1.1582,-9.7166,1.8237,7.0431,172.7223,0.0000,0.0000,0.0000,0.0000,0.0000,break_time
210324,-0.1320,0.0318,0.0304,0.3244,1.2115,-9.6987,1.8315,7.0504,172.7133,0.0000,0.0000,0.0000,0.0000,0.0000,break_time
210440,-0.2016,0.0465,-0.0037,0.3406,1.2504,-9.7298,1.8472,7.0772,172.6833,0.0000,0.0000,0.0000,0.0000,0.0000,break_time
210556,-0.2019,0.0813,-0.0395,0.3166,1.2420,-9.7645,1.8467,7.0941,172.6671,0.0000,0.0000,0.0000,0.0000,0.0000,break_time
210672,-0.1913,0.0702,-0.0057,0.3214,1.2277,-9.7106,1.8501,7.1048,172.6558,0.0000,0.0000,0.0000,0.0000,0.0000,break_time
210788,-0.1928,0.0635,-0.0294,0.2951,1.1888,-9.7795,1.8366,7.0870,172.6765,0.0000,0.0000,0.0000,0.0000,0.0000,break_time
210904,-0.1958,0.0386,0.0425,0.3328,1.2187,-9.7573,1.8468,7.0899,172.6711,0.0000,0.0000,0.0000,0.0000,0.0000,break_time
211020,-0.1849,0.0672,0.0222,0.3250,1.2055,-9.7447,1.8518,7.0857,172.6739,0.0000,0.0000,0.0000,0.0000,0.0000,break_time
211136,-0.2241,0.0706,0.0416,0.3113,1.2235,-9.7412,1.8482,7.0927,172.6681,0.0000,0.0000,0.0000,0.0000,0.0000,break_time
211252,-0.2098,0.0818,0.0172,0.3621,1.2157,-9.7477,1.8745,7.0938,172.6602,0.0000,0.0000,0.0000,0.0000,0.0000,break_time
211368,-0.2061,0.0768,-0.0236,0.2993,1.1965,-9.7406,1.8617,7.0844,172.6726,0.0000,0.0000,0.0000,0.0000,0.0000,break_time
211484,-0.2075,0.0774,0.0525,0.3208,1.2343,-9.7017,1.8634,7.1006,172.6565,0.0000,0.0000,0.0000,0.0000,0.0000,break_time
211600,-0.2046,0.0485,-0.0247,0.3328,1.2402,-9.7561,1.8709,7.1146,172.6410,0.0000,0.0000,0.0000,0.0000,0.0000,break_time
211716,-0.2428,0.0571,0.0044,0.3472,1.1762,-9.7579,1.8862,7.0900,172.6609,0.0000,0.0000,0.0000,0.0000,0.0000,break_time
211832,-0.1877,0.0735,0.0247,0.2975,1.2163,-9.7406,1.8711,7.0924,172.6624,0.0000,0.0000,0.0000,0.0000,0.0000,break_time
211948,-0.1633,0.0708,-0.0472,0.3418,1.2049,-9.7459,1.8834,7.0876,172.6640,0.0000,0.0000,0.0000,0.0000,0.0000,break_time
212064,-0.1523,0.0723,0.0245,0.3023,1.1930,-9.6849,1.8725,7.0807,172.6734,0.0000,0.0000,0.0000,0.0000,0.0000,break_time
212180,-0.1825,0.0841,0.0316,0.3298,1.2301,-9.7998,1.8765,7.0877,172.6656,0.0000,0.0000,0.0000,0.0000,0.0000,break_time
212296,-0.1981,0.0354,-0.0892,0.2777,1.2390,-9.7232,1.8512,7.1049,172.6555,0.0000,0.0000,0.0000,0.0000,0.0000,break_time
212412,-0.2023,0.0957,-0.0120,0.3627,1.2684,-9.7896,1.8767,7.1322,172.6225,0.0000,0.0000,0.0000,0.0000,0.0000,break_time
212528,-0.1731,0.0703,-0.0386,0.3514,1.2678,-9.7310,1.8941,7.1608,172.5904,0.0000,0.0000,0.0000,0.0000,0.0000,break_time
212644,-0.2394,0.0548,0.0988,0.3567,1.2540,-9.7603,1.9123,7.1764,172.5706,0.0000,0.0000,0.0000,0.0000,0.0000,nothing
212760,-0.2513,0.0832,0.0041,0.3113,1.2073,-9.7274,1.9030,7.1659,172.5831,0.0000,0.0000,0.0000,0.0000,0.0000,nothing
212876,-0.2247,0.0672,-0.0215,0.3202,1.1708,-9.7465,1.8995,7.1340,172.6149,0.0000,0.0000,0.0000,0.0000,0.0000,nothing
212992,-0.1738,0.0847,-0.0679,0.5800,1.3737,-9.5065,2.0523,7.2396,172.4722,0.0000,0.0000,0.0000,0.0000,0.0000,error_redo
213108,-0.4429,0.1189,0.0249,0.4543,1.2067,-9.7040,2.1130,7.2238,172.4704,0.0000,0.0000,0.0000,0.0000,0.0000,error_redo
213224,-0.0586,-0.0157,-0.0078,0.2855,0.9134,-9.8483,2.0668,7.0295,172.6700,0.0000,0.0000,0.0000,0.0000,0.0000,error_redo
213340,-0.0138,0.0050,0.0019,0.4417,1.1959,-9.7172,2.1184,7.0275,172.6571,0.0000,0.0000,0.0000,0.0000,0.0000,error_redo
213456,-0.2354,0.0693,-0.0195,0.3873,1.4210,-9.7334,2.1321,7.1551,172.5308,0.0000,0.0000,0.0000,0.0000,0.0000,error_redo
213572,-0.2611,0.0874,0.0233,0.3166,1.2726,-9.7112,2.1041,7.1857,172.5094,0.0000,0.0000,0.0000,0.0000,0.0000,error_redo
213688,-0.2624,0.0844,0.0033,0.3178,1.1924,-9.7585,2.0788,7.1633,172.5381,0.0000,0.0000,0.0000,0.0000,0.0000,error_redo
213804,-0.2519,0.0586,0.0187,0.3358,1.2163,-9.7166,2.0673,7.1601,172.5444,0.0000,0.0000,0.0000,0.0000,0.0000,error_redo
213920,-0.2030,0.0432,-0.0189,0.3514,1.0846,-9.7687,2.0654,7.0771,172.6248,0.0000,0.0000,0.0000,0.0000,0.0000,cooldown
214036,-0.0237,0.0444,-0.0305,0.3657,1.5473,-9.6442,2.0733,7.2794,172.4280,0.0000,0.0000,0.0000,0.0000,0.0000,cooldown
214152,-0.3779,0.1181,0.0579,0.4082,1.4761,-9.7537,2.1032,7.4121,172.2921,0.0000,0.0000,0.0000,0.0000,0.0000,cooldown
214268,-0.3385,0.0435,0.0874,0.2562,1.1546,-9.7220,2.0429,7.3481,172.3702,0.0000,0.0000,0.0000,0.0000,0.0000,cooldown
214384,-0.2159,0.0628,-0.0714,0.3160,1.0696,-9.7855,2.0225,7.2364,172.4833,0.0000,0.0000,0.0000,0.0000,0.0000,cooldown
214500,-0.1494,0.0230,-0.0443,0.3083,1.1780,-9.7298,2.0004,7.2028,172.5217,0.0000,0.0000,0.0000,0.0000,0.0000,cooldown
214616,-0.1641,0.0511,-0.0038,0.3053,1.2193,-9.6969,1.9793,7.1989,172.5312,0.0000,0.0000,0.0000,0.0000,0.0000,cooldown
214732,-0.1711,0.0596,0.0312,0.3280,1.2666,-9.7382,1.9727,7.2197,172.5129,0.0000,0.0000,0.0000,0.0000,0.0000,cooldown
214848,-0.2079,0.0780,0.0019,0.3406,1.2121,-9.7465,1.9741,7.2061,172.5256,0.0000,0.0000,0.0000,0.0000,0.0000,cooldown
214964,-0.1981,0.0669,-0.0065,0.2783,1.2402,-9.7064,1.9397,7.2134,172.5277,0.0000,0.0000,0.0000,0.0000,0.0000,cooldown
215080,-0.1771,0.0496,-0.0188,0.2891,1.2001,-9.7298,1.9146,7.1949,172.5521,0.0000,0.0000,0.0000,0.0000,0.0000,cooldown
215196,-0.2177,0.0679,0.0037,0.3442,1.2378,-9.7579,1.9236,7.1980,172.5468,0.0000,0.0000,0.0000,0.0000,0.0000,cooldown
215312,-0.1842,0.0870,0.0020,0.3184,1.1756,-9.7148,1.9176,7.1679,172.5775,0.0000,0.0000,0.0000,0.0000,0.0000,cooldown
215428,-0.1800,0.0536,0.0724,0.2897,1.2103,-9.7483,1.8948,7.1585,172.5925,0.0000,0.0000,0.0000,0.0000,0.0000,cooldown
215544,-0.2297,0.0627,-0.0131,0.3208,1.1953,-9.7525,1.8923,7.1410,172.6100,0.0000,0.0000,0.0000,0.0000,0.0000,cooldown
215660,-0.2012,0.0470,0.0215,0.3274,1.1912,-9.7597,1.8938,7.1223,172.6277,0.0000,0.0000,0.0000,0.0000,0.0000,cooldown
215776,-0.1869,0.0709,0.0665,0.3388,1.1971,-9.7537,1.9019,7.1094,172.6381,0.0000,0.0000,0.0000,0.0000,0.0000,cooldown
215892,-0.2068,0.0657,-0.0105,0.3280,1.2528,-9.7627,1.9026,7.1294,172.6186,0.0000,0.0000,0.0000,0.0000,0.0000,cooldown
216008,-0.1883,0.0498,0.0350,0.2891,1.1912,-9.7501,1.8809,7.1126,172.6404,0.0000,0.0000,0.0000,0.0000,0.0000,cooldown
216124,-0.2176,0.0695,-0.0240,0.3484,1.2055,-9.7585,1.8957,7.1052,172.6438,0.0000,0.0000,0.0000,0.0000,0.0000,cooldown
216240,-0.2099,0.0634,-0.0709,0.3172,1.2097,-9.7597,1.8909,7.1008,172.6492,0.0000,0.0000,0.0000,0.0000,0.0000,cooldown
216356,-0.2106,0.0687,-0.0125,0.3053,1.2055,-9.7238,1.8803,7.0972,172.6555,0.0000,0.0000,0.0000,0.0000,0.0000,cooldown
216472,-0.2027,0.0660,-0.0450,0.3292,1.2019,-9.7471,1.8843,7.0900,172.6614,0.0000,0.0000,0.0000,0.0000,0.0000,cooldown
216588,-0.2104,0.0626,0.0105,0.2993,1.2115,-9.7298,1.8707,7.0905,172.6645,0.0000,0.0000,0.0000,0.0000,0.0000,cooldown
216704,-0.1880,0.0547,0.0189,0.2586,1.2103,-9.7789,1.8338,7.0867,172.6775,0.0000,0.0000,0.0000,0.0000,0.0000,cooldown
216820,-0.2131,0.0969,0.0498,0.3538,1.2145,-9.7447,1.8568,7.0880,172.6704,0.0000,0.0000,0.0000,0.0000,0.0000,cooldown
216936,-0.1772,0.0879,-0.0969,0.3268,1.1947,-9.7855,1.8610,7.0749,172.6820,0.0000,0.0000,0.0000,0.0000,0.0000,cooldown
217052,-0.1827,0.0618,0.0139,0.1658,1.2241,-9.7208,1.7721,7.0851,172.6945,0.0000,0.0000,0.0000,0.0000,0.0000,cooldown
217168,-0.1881,0.0777,-0.0292,0.3400,1.2390,-9.7866,1.7924,7.0977,172.6772,0.0000,0.0000,0.0000,0.0000,0.0000,cooldown
217284,-0.1907,0.0564,0.0393,0.3717,1.2319,-9.7232,1.8302,7.1095,172.6564,0.0000,0.0000,0.0000,0.0000,0.0000,cooldown
217400,-0.2335,0.0329,0.0037,0.2107,1.2666,-9.8016,1.7690,7.1348,172.6469,0.0000,0.0000,0.0000,0.0000,0.0000,cooldown
217516,-0.2170,0.0746,-0.0420,0.3639,1.2355,-9.7741,1.8038,7.1413,172.6321,0.0000,0.0000,0.0000,0.0000,0.0000,cooldown
217632,-0.1888,0.0725,0.0215,0.3250,1.1792,-9.7699,1.8126,7.1150,172.6555,0.0000,0.0000,0.0000,0.0000,0.0000,cooldown
217748,-0.2029,0.0645,0.0150,0.2873,1.2378,-9.7777,1.7983,7.1247,172.6496,0.0000,0.0000,0.0000,0.0000,0.0000,cooldown
217864,-0.2080,0.0438,0.0334,0.3615,1.1834,-9.7178,1.8298,7.1061,172.6597,0.0000,0.0000,0.0000,0.0000,0.0000,cooldown
217980,-0.2149,0.0682,0.0038,0.2795,1.2408,-9.7382,1.8100,7.1214,172.6499,0.0000,0.0000,0.0000,0.0000,0.0000,cooldown
218096,-0.1864,0.0787,0.0230,0.3508,1.1906,-9.7184,1.8341,7.1073,172.6575,0.0000,0.0000,0.0000,0.0000,0.0000,cooldown
218212,-0.2255,0.0503,-0.0166,0.3131,1.2390,-9.7268,1.8335,7.1221,172.6433,0.0000,0.0000,0.0000,0.0000,0.0000,cooldown
218328,-0.2184,0.0642,0.0382,0.3125,1.1906,-9.7316,1.8327,7.1070,172.6581,0.0000,0.0000,0.0000,0.0000,0.0000,cooldown
218444,-0.1918,0.0462,0.0431,0.3166,1.2390,-9.7268,1.8344,7.1219,172.6433,0.0000,0.0000,0.0000,0.0000,0.0000,cooldown
218560,-0.2029,0.0735,0.0331,0.3436,1.2037,-9.7651,1.8510,7.1120,172.6487,0.0000,0.0000,0.0000,0.0000,0.0000,cooldown
218676,-0.2005,0.0678,-0.0031,0.2855,1.2001,-9.7364,1.8326,7.1032,172.6618,0.0000,0.0000,0.0000,0.0000,0.0000,cooldown
218792,-0.2459,0.0661,0.0382,0.3077,1.2193,-9.7382,1.8289,7.1062,172.6599,0.0000,0.0000,0.0000,0.0000,0.0000,cooldown
218908,-0.2222,0.0619,-0.0135,0.3089,1.2301,-9.7268,1.8265,7.1159,172.6510,0.0000,0.0000,0.0000,0.0000,0.0000,cooldown
219024,-0.1776,0.0515,-0.0157,0.3065,1.2187,-9.7483,1.8225,7.1166,172.6514,0.0000,0.0000,0.0000,0.0000,0.0000,cooldown
219140,-0.1933,0.0937,0.0125,0.3364,1.2091,-9.7112,1.8371,7.1142,172.6500,0.0000,0.0000,0.0000,0.0000,0.0000,cooldown
219256,-0.1917,0.0855,-0.0318,0.3268,1.2295,-9.7489,1.8439,7.1212,172.6416,0.0000,0.0000,0.0000,0.0000,0.0000,cooldown
219372,-0.1921,0.0731,0.0464,0.3274,1.2097,-9.7376,1.8506,7.1169,172.6441,0.0000,0.0000,0.0000,0.0000,0.0000,cooldown
219488,-0.2102,0.0832,0.0104,0.3388,1.1846,-9.7675,1.8628,7.0962,172.6609,0.0000,0.0000,0.0000,0.0000,0.0000,cooldown
219604,-0.2054,0.0575,-0.0191,0.3651,1.2259,-9.7639,1.8890,7.1017,172.6488,0.0000,0.0000,0.0000,0.0000,0.0000,cooldown
219720,-0.1934,0.0728,-0.0277,0.2903,1.2396,-9.7376,1.8696,7.1167,172.6393,0.0000,0.0000,0.0000,0.0000,0.0000,cooldown
219836,-0.2087,0.1059,0.0189,0.2915,1.2366,-9.7118,1.8532,7.1304,172.6303,0.0000,0.0000,0.0000,0.0000,0.0000,cooldown
219952,-0.1955,0.0525,-0.0215,0.3484,1.1888,-9.7717,1.8706,7.1105,172.6451,0.0000,0.0000,0.0000,0.0000,0.0000,cooldown
220068,-0.1977,0.0559,-0.0011,0.3280,1.2522,-9.7214,1.8752,7.1330,172.6222,0.0000,0.0000,0.0000,0.0000,0.0000,cooldown
220184,-0.2281,0.0941,0.0213,0.2903,1.1930,-9.7495,1.8570,7.1170,172.6423,0.0000,0.0000,0.0000,0.0000,0.0000,cooldown
220300,-0.2225,0.0699,0.0281,0.2855,1.1942,-9.7711,1.8374,7.1017,172.6621,0.0000,0.0000,0.0000,0.0000,0.0000,cooldown
220416,-0.2341,0.0630,-0.0751,0.3316,1.2253,-9.7501,1.8469,7.1074,172.6541,0.0000,0.0000,0.0000,0.0000,0.0000,cooldown
220532,-0.1925,0.0581,0.0397,0.2915,1.1888,-9.7651,1.8319,7.0904,172.6744,0.0000,0.0000,0.0000,0.0000,0.0000,cooldown
220648,-0.2048,0.0691,0.0138,0.3047,1.3659,-9.7202,1.8266,7.1808,172.5881,0.0000,0.0000,0.0000,0.0000,0.0000,cooldown
220764,-0.2405,0.0675,0.0330,0.3687,1.3600,-9.7382,1.8587,7.2573,172.5060,0.0000,0.0000,0.0000,0.0000,0.0000,cooldown
220880,-0.2048,0.0765,-0.0180,0.2915,1.2211,-9.7196,1.8433,7.2473,172.5195,0.0000,0.0000,0.0000,0.0000,0.0000,cooldown
220996,-0.2030,0.0684,0.0740,0.2759,1.2343,-9.7430,1.8199,7.2443,172.5282,0.0000,0.0000,0.0000,0.0000,0.0000,cooldown
221112,-0.1892,0.0840,0.0060,0.3633,1.2109,-9.7286,1.8501,7.2289,172.5356,0.0000,0.0000,0.0000,0.0000,0.0000,cooldown
221228,-0.1955,0.0661,-0.0270,0.2885,1.2265,-9.7645,1.8330,7.2216,172.5470,0.0000,0.0000,0.0000,0.0000,0.0000,cooldown
221344,-0.1887,0.0937,0.0260,0.3137,1.2043,-9.7711,1.8322,7.2017,172.5665,0.0000,0.0000,0.0000,0.0000,0.0000,cooldown
221460,-0.1903,0.0799,-0.0074,0.3388,1.2013,-9.7633,1.8463,7.1826,172.5815,0.0000,0.0000,0.0000,0.0000,0.0000,cooldown
221576,-0.1782,0.0590,0.0025,0.2813,1.2199,-9.7777,1.8251,7.1752,172.5940,0.0000,0.0000,0.0000,0.0000,0.0000,cooldown
221692,-0.2218,0.0560,0.0697,0.3083,1.2372,-9.7465,1.8223,7.1808,172.5893,0.0000,0.0000,0.0000,0.0000,0.0000,cooldown
221808,-0.2084,0.0575,0.0319,0.3484,1.2229,-9.7687,1.8428,7.1758,172.5890,0.0000,0.0000,0.0000,0.0000,0.0000,cooldown
221924,-0.2285,0.0684,-0.0566,0.3005,1.2684,-9.7268,1.8340,7.2007,172.5670,0.0000,0.0000,0.0000,0.0000,0.0000,cooldown
222040,-0.2007,0.0748,0.1220,0.3220,1.2205,-9.7693,1.8379,7.1924,172.5741,0.0000,0.0000,0.0000,0.0000,0.0000,cooldown
222156,-0.2131,0.0690,-0.0421,0.2885,1.2031,-9.7178,1.8230,7.1786,172.5911,0.0000,0.0000,0.0000,0.0000,0.0000,cooldown
222272,-0.2211,0.0847,-0.0379,0.3316,1.2103,-9.7627,1.8337,7.1671,172.5997,0.0000,0.0000,0.0000,0.0000,0.0000,cooldown
222388,-0.2063,0.0573,-0.0672,0.2867,1.1959,-9.7130,1.8182,7.1521,172.6181,0.0000,0.0000,0.0000,0.0000,0.0000,cooldown
222504,-0.2168,0.0874,0.1110,0.3526,1.2343,-9.7633,1.8416,7.1569,172.6075,0.0000,0.0000,0.0000,0.0000,0.0000,cooldown
222620,-0.1956,0.0735,0.0149,0.2795,1.2295,-9.7208,1.8209,7.1617,172.6080,0.0000,0.0000,0.0000,0.0000,0.0000,cooldown
222736,-0.2241,0.0333,0.0578,0.3484,1.2037,-9.7591,1.8418,7.1483,172.6159,0.0000,0.0000,0.0000,0.0000,0.0000,cooldown
222852,-0.1808,0.0613,-0.0574,0.3274,1.2151,-9.7711,1.8481,7.1419,172.6204,0.0000,0.0000,0.0000,0.0000,0.0000,cooldown
222968,-0.2140,0.0682,0.0663,0.3065,1.2229,-9.7645,1.8416,7.1412,172.6227,0.0000,0.0000,0.0000,0.0000,0.0000,cooldown
223084,-0.1975,0.0488,0.0555,0.3172,1.2193,-9.7681,1.8420,7.1382,172.6255,0.0000,0.0000,0.0000,0.0000,0.0000,cooldown
223200,-0.2158,0.0608,-0.0274,0.3352,1.2235,-9.7124,1.8539,7.1419,172.6189,0.0000,0.0000,0.0000,0.0000,0.0000,cooldown
223316,-0.2236,0.0717,0.0183,0.3023,1.1906,-9.7585,1.8446,7.1230,172.6396,0.0000,0.0000,0.0000,0.0000,0.0000,cooldown
223432,-0.1940,0.0714,-0.0398,0.3418,1.2079,-9.7388,1.8596,7.1173,172.6413,0.0000,0.0000,0.0000,0.0000,0.0000,cooldown
223548,-0.2104,0.0788,-0.0210,0.3400,1.2582,-9.7232,1.8723,7.1424,172.6138,0.0000,0.0000,0.0000,0.0000,0.0000,cooldown
223664,-0.2234,0.0701,0.0263,0.3382,1.2390,-9.7406,1.8823,7.1527,172.6013,0.0000,0.0000,0.0000,0.0000,0.0000,cooldown
223780,-0.1958,0.0592,0.0252,0.3418,1.2564,-9.7627,1.8930,7.1703,172.5815,0.0000,0.0000,0.0000,0.0000,0.0000,cooldown
223896,-0.2578,0.0772,0.0232,0.3567,1.2612,-9.7364,1.9118,7.1909,172.5567,0.0000,0.0000,0.0000,0.0000,0.0000,cooldown
224012,-0.2211,0.0736,-0.0714,0.2520,1.2103,-9.7459,1.8676,7.1795,172.5791,0.0000,0.0000,0.0000,0.0000,0.0000,cooldown
224128,-0.2057,0.0894,-0.0414,0.2909,1.2181,-9.7382,1.8506,7.1742,172.5885,0.0000,0.0000,0.0000,0.0000,0.0000,nothing
224244,-0.2015,0.0911,0.0093,0.3137,1.1953,-9.7525,1.8484,7.1552,172.6075,0.0000,0.0000,0.0000,0.0000,0.0000,nothing
224360,-0.1505,0.0540,0.0352,0.2795,1.1864,-9.7561,1.8265,7.1327,172.6348,0.0000,0.0000,0.0000,0.0000,0.0000,nothing
224476,-0.1940,0.0544,0.0905,0.3615,1.2361,-9.7495,1.8545,7.1415,172.6192,0.0000,0.0000,0.0000,0.0000,0.0000,nothing
224592,-0.2183,0.0680,0.0176,0.3448,1.1265,-9.7483,1.8703,7.0862,172.6687,0.0000,0.0000,0.0000,0.0000,0.0000,nothing
224708,-0.2773,0.2091,-0.0086,0.6070,1.9424,-9.5987,2.0382,7.5187,172.2068,0.0000,0.0000,0.0000,0.0000,0.0000,สาม
224824,-0.5126,0.1928,0.0641,0.2137,1.2684,-9.7681,1.9584,7.5065,172.2393,0.0000,0.0000,0.0000,0.0000,0.0000,สาม
224940,-0.1511,0.0427,0.0166,0.1915,0.9146,-9.7920,1.8742,7.2893,172.4711,0.0000,0.0000,0.0000,0.0000,0.0000,สาม
225056,-0.0622,0.0151,-0.0213,0.2945,1.1295,-9.7549,1.8586,7.2206,172.5416,0.0000,0.0000,0.0000,0.0000,0.0000,สาม
225172,-0.1126,0.0503,-0.0301,0.3226,1.2941,-9.7244,1.8611,7.2561,172.5065,0.0000,0.0000,0.0000,0.0000,0.0000,สาม
225288,-0.1767,0.0679,0.0172,0.3304,1.2666,-9.7418,1.8676,7.2708,172.4906,0.0000,0.0000,0.0000,0.0000,0.0000,สาม
225404,-0.2361,0.0787,-0.0053,0.3143,1.2486,-9.7292,1.8643,7.2747,172.4877,0.0000,0.0000,0.0000,0.0000,0.0000,สาม
225520,-0.1847,0.0815,-0.0488,0.3538,1.2516,-9.7262,1.8845,7.2800,172.4774,0.0000,0.0000,0.0000,0.0000,0.0000,สาม
225636,-0.2155,0.1010,0.0284,0.3053,1.2402,-9.7663,1.8736,7.2754,172.4847,0.0000,0.0000,0.0000,0.0000,0.0000,สาม
225752,-0.2403,0.0713,0.0237,0.3472,1.2468,-9.7082,1.8894,7.2792,172.4770,0.0000,0.0000,0.0000,0.0000,0.0000,สาม
225868,-0.2304,0.0840,-0.0367,0.3322,1.1511,-9.7459,1.8943,7.2245,172.5287,0.0000,0.0000,0.0000,0.0000,0.0000,สาม
225984,-0.0654,-0.0010,-0.0110,0.1221,0.9996,-9.9165,1.7735,7.0758,172.7031,0.0000,0.0000,0.0000,0.0000,0.0000,break_time
226100,-0.3902,0.0311,0.0487,0.3340,1.5695,-9.8333,1.7886,7.2768,172.5043,0.0000,0.0000,0.0000,0.0000,0.0000,break_time
226216,-0.3517,0.1307,0.0695,0.1185,1.2396,-9.7011,1.6798,7.2774,172.5292,0.0000,0.0000,0.0000,0.0000,0.0000,break_time
226332,-0.2172,0.1047,0.0135,0.2945,1.0667,-9.7920,1.6831,7.1710,172.6321,0.0000,0.0000,0.0000,0.0000,0.0000,break_time
226448,-0.1170,0.0300,0.0239,0.3119,1.1139,-9.7447,1.6969,7.1058,172.6923,0.0000,0.0000,0.0000,0.0000,0.0000,break_time
226564,-0.1296,0.0637,0.0187,0.3089,1.1947,-9.7525,1.7072,7.0934,172.7020,0.0000,0.0000,0.0000,0.0000,0.0000,break_time
226680,-0.1614,0.0217,0.0577,0.3131,1.2576,-9.7118,1.7196,7.1214,172.6719,0.0000,0.0000,0.0000,0.0000,0.0000,break_time
226796,-0.1918,0.0395,0.0007,0.3280,1.2229,-9.7603,1.7386,7.1230,172.6658,0.0000,0.0000,0.0000,0.0000,0.0000,break_time
226912,-0.1962,0.0646,-0.0301,0.2131,1.2139,-9.7370,1.6893,7.1212,172.6792,0.0000,0.0000,0.0000,0.0000,0.0000,break_time
227028,-0.2161,0.0716,-0.0308,0.6680,1.1044,-9.7621,1.9096,7.0534,172.6902,0.0000,0.0000,0.0000,0.0000,0.0000,break_time
227144,-0.1944,0.0768,0.0676,0.0958,1.3151,-9.7477,1.7744,7.1165,172.6634,0.0000,0.0000,0.0000,0.0000,0.0000,break_time
227260,-0.2185,0.0676,-0.0267,0.1359,1.1965,-9.7154,1.6769,7.1071,172.6958,0.0000,0.0000,0.0000,0.0000,0.0000,break_time
227376,-0.2131,0.0616,-0.0579,0.4777,1.1942,-9.7753,1.7872,7.0921,172.6840,0.0000,0.0000,0.0000,0.0000,0.0000,break_time
227492,-0.1783,0.0905,0.0022,0.3424,1.2049,-9.7543,1.8080,7.0866,172.6841,0.0000,0.0000,0.0000,0.0000,0.0000,break_time
227608,-0.2268,0.0509,-0.0202,0.2801,1.3629,-9.7705,1.7898,7.1721,172.6057,0.0000,0.0000,0.0000,0.0000,0.0000,break_time
227724,-0.1967,0.0533,0.0858,0.2909,1.2642,-9.7136,1.7809,7.1960,172.5847,0.0000,0.0000,0.0000,0.0000,0.0000,break_time
227840,-0.1985,0.0691,-0.0020,0.3927,1.1648,-9.7974,1.8310,7.1537,172.6133,0.0000,0.0000,0.0000,0.0000,0.0000,break_time
227956,-0.1955,0.0449,-0.0348,0.3472,1.2444,-9.7358,1.8504,7.1663,172.5963,0.0000,0.0000,0.0000,0.0000,0.0000,break_time
228072,-0.2098,0.0717,0.0189,0.2418,1.1840,-9.7741,1.8060,7.1401,172.6327,0.0000,0.0000,0.0000,0.0000,0.0000,break_time
228188,-0.2069,0.0751,0.0274,0.3053,1.2133,-9.7489,1.8034,7.1352,172.6381,0.0000,0.0000,0.0000,0.0000,0.0000,break_time
228304,-0.2166,0.0438,0.0330,0.3986,1.2145,-9.7579,1.8552,7.1306,172.6296,0.0000,0.0000,0.0000,0.0000,0.0000,break_time
228420,-0.2060,0.0547,-0.0318,0.2682,1.1696,-9.7292,1.8266,7.1029,172.6637,0.0000,0.0000,0.0000,0.0000,0.0000,break_time
228536,-0.2326,0.0641,0.0209,0.2951,1.2031,-9.7382,1.8162,7.0966,172.6724,0.0000,0.0000,0.0000,0.0000,0.0000,break_time
228652,-0.1718,0.0784,-0.0124,0.3382,1.2540,-9.7609,1.8314,7.1186,172.6472,0.0000,0.0000,0.0000,0.0000,0.0000,break_time
228768,-0.2011,0.0729,-0.0221,0.2999,1.2432,-9.7094,1.8238,7.1360,172.6323,0.0000,0.0000,0.0000,0.0000,0.0000,break_time
228884,-0.2007,0.0729,-0.0293,0.2538,1.2037,-9.7376,1.7896,7.1269,172.6496,0.0000,0.0000,0.0000,0.0000,0.0000,break_time
229000,-0.2067,0.0643,0.0365,0.2813,1.1977,-9.7118,1.7754,7.1170,172.6627,0.0000,0.0000,0.0000,0.0000,0.0000,nothing
229116,-0.2138,0.0769,-0.0240,0.3885,1.2528,-9.7495,1.8242,7.1370,172.6312,0.0000,0.0000,0.0000,0.0000,0.0000,nothing
229232,-0.1858,0.0950,-0.0372,0.3514,1.1582,-9.7238,1.8472,7.1022,172.6591,0.0000,0.0000,0.0000,0.0000,0.0000,nothing
229348,-0.1903,0.0603,-0.0566,0.3071,1.1912,-9.7370,1.8418,7.0891,172.6731,0.0000,0.0000,0.0000,0.0000,0.0000,nothing
229464,-0.1847,0.0573,-0.0050,0.2837,1.2283,-9.7196,1.8235,7.1001,172.6671,0.0000,0.0000,0.0000,0.0000,0.0000,nothing
229580,-0.1919,0.0567,0.0139,0.3669,1.2343,-9.7663,1.8547,7.1099,172.6497,0.0000,0.0000,0.0000,0.0000,0.0000,nothing
229696,-0.1802,0.0533,-0.0166,0.3514,1.1942,-9.7208,1.8747,7.0988,172.6553,0.0000,0.0000,0.0000,0.0000,0.0000,nothing
229812,-0.2240,0.0416,0.0191,0.3472,1.2253,-9.7340,1.8899,7.1060,172.6445,0.0000,0.0000,0.0000,0.0000,0.0000,nothing
229928,-0.2057,0.0439,0.0034,0.3508,1.1714,-9.7735,1.9050,7.0783,172.6673,0.0000,0.0000,0.0000,0.0000,0.0000,nothing
230044,-0.2083,0.0555,0.0476,0.2658,1.2349,-9.7070,1.8702,7.0952,172.6600,0.0000,0.0000,0.0000,0.0000,0.0000,nothing
230160,-0.1725,0.0342,0.0249,0.3538,1.2289,-9.7430,1.8895,7.1040,172.6465,0.0000,0.0000,0.0000,0.0000,0.0000,nothing
230276,-0.1884,0.0819,-0.0169,0.3346,1.2396,-9.7046,1.8964,7.1211,172.6282,0.0000,0.0000,0.0000,0.0000,0.0000,nothing
230392,-0.1858,0.0618,-0.0297,0.3837,1.2319,-9.7675,1.9301,7.1273,172.6134,0.0000,0.0000,0.0000,0.0000,0.0000,nothing
230508,-0.4071,0.0194,0.0637,0.3627,0.7452,-9.7292,1.9501,6.8538,172.8717,0.0000,0.0000,0.0000,0.0000,0.0000,สี่
230624,0.1890,-0.0578,-0.0808,0.5465,1.0307,-9.8268,2.0726,6.7657,172.9211,0.0000,0.0000,0.0000,0.0000,0.0000,สี่
230740,-0.1591,0.0462,0.0060,0.3633,1.4581,-9.7202,2.0771,6.9419,172.7511,0.0000,0.0000,0.0000,0.0000,0.0000,สี่
230856,-0.2996,0.0643,-0.0718,0.3627,1.2983,-9.7262,2.0811,7.0075,172.6870,0.0000,0.0000,0.0000,0.0000,0.0000,สี่
230972,-0.2834,0.0680,0.1077,0.3017,1.1756,-9.7298,2.0494,6.9954,172.7077,0.0000,0.0000,0.0000,0.0000,0.0000,สี่
231088,-0.2110,0.0590,0.0194,0.3801,1.0996,-9.7537,2.0662,6.9386,172.7574,0.0000,0.0000,0.0000,0.0000,0.0000,สี่
231204,0.0402,0.1389,0.0536,0.6626,1.7861,-9.6017,2.2476,7.2952,172.3628,0.0000,0.0000,0.0000,0.0000,0.0000,nothing
231320,-0.4019,0.1341,0.0076,0.3986,1.2642,-9.8004,2.2539,7.3001,172.3563,0.0000,0.0000,0.0000,0.0000,0.0000,nothing
231436,-0.2478,0.0412,0.0204,0.3005,1.0212,-9.6777,2.2058,7.1732,172.4919,0.0000,0.0000,0.0000,0.0000,0.0000,nothing
231552,-0.1422,0.0553,0.0360,0.2358,1.1469,-9.7519,2.1227,7.1265,172.5610,0.0000,0.0000,0.0000,0.0000,0.0000,nothing
231668,-0.1339,0.0333,-0.0503,0.3190,1.1942,-9.7603,2.0962,7.1109,172.5835,0.0000,0.0000,0.0000,0.0000,0.0000,nothing
231784,-0.1306,0.0652,-0.0256,0.3148,1.2103,-9.7447,2.0702,7.1075,172.5941,0.0000,0.0000,0.0000,0.0000,0.0000,nothing
231900,-0.1636,0.0548,0.0254,0.4184,1.2331,-9.7783,2.1065,7.1148,172.5768,0.0000,0.0000,0.0000,0.0000,0.0000,nothing
232016,-0.2285,0.0754,-0.0616,0.3137,1.2343,-9.7388,2.0788,7.1253,172.5746,0.0000,0.0000,0.0000,0.0000,0.0000,nothing
232132,-0.1489,0.1062,-0.0044,0.2819,1.3408,-9.6460,2.0371,7.2032,172.5113,0.0000,0.0000,0.0000,0.0000,0.0000,nothing
232248,-0.1733,0.0717,0.0035,0.5136,1.1157,-9.7807,2.1324,7.1326,172.5523,0.0000,0.0000,0.0000,0.0000,0.0000,nothing
232364,-0.2020,0.0423,-0.0123,0.3172,1.2606,-9.7573,2.1038,7.1552,172.5388,0.0000,0.0000,0.0000,0.0000,0.0000,nothing
232480,-0.1885,0.0748,0.0526,0.2580,1.2103,-9.7382,2.0440,7.1479,172.5626,0.0000,0.0000,0.0000,0.0000,0.0000,nothing
232596,-0.1782,0.0908,0.0389,0.3172,1.1654,-9.7603,2.0245,7.1136,172.6010,0.0000,0.0000,0.0000,0.0000,0.0000,nothing
232712,-0.1823,0.0443,0.0510,0.3346,1.2031,-9.7418,2.0172,7.1059,172.6104,0.0000,0.0000,0.0000,0.0000,0.0000,nothing
232828,-0.1686,0.0780,0.0239,0.3011,1.2001,-9.7322,1.9914,7.0980,172.6252,0.0000,0.0000,0.0000,0.0000,0.0000,nothing
232944,-0.2372,0.0608,0.0558,0.3526,1.2175,-9.7262,1.9983,7.1012,172.6202,0.0000,0.0000,0.0000,0.0000,0.0000,nothing
233060,-0.2087,0.0676,-0.0124,0.3394,1.2247,-9.7525,1.9962,7.1064,172.6157,0.0000,0.0000,0.0000,0.0000,0.0000,nothing
233176,-0.1939,0.0616,0.0522,0.2777,1.1654,-9.7555,1.9585,7.0768,172.6546,0.0000,0.0000,0.0000,0.0000,0.0000,nothing
233292,-0.1842,0.0671,-0.0398,0.2909,1.1947,-9.7232,1.9328,7.0693,172.6686,0.0000,0.0000,0.0000,0.0000,0.0000,nothing
233408,-0.2102,0.0772,-0.0157,0.3029,1.2055,-9.7268,1.9165,7.0686,172.6737,0.0000,0.0000,0.0000,0.0000,0.0000,nothing
233524,-0.2054,0.0401,-0.0203,0.2957,1.2223,-9.7753,1.8967,7.0741,172.6735,0.0000,0.0000,0.0000,0.0000,0.0000,nothing
233640,-0.2181,0.0628,-0.0196,0.3400,1.1942,-9.7699,1.9049,7.0631,172.6820,0.0000,0.0000,0.0000,0.0000,0.0000,nothing
233756,-0.2348,0.0680,0.0521,0.2735,1.2343,-9.7549,1.8737,7.0777,172.6760,0.0000,0.0000,0.0000,0.0000,0.0000,nothing
233872,-0.2251,0.0810,-0.0135,0.3520,1.1930,-9.7334,1.8919,7.0682,172.6805,0.0000,0.0000,0.0000,0.0000,0.0000,nothing
233988,-0.2120,0.0537,-0.0048,0.3208,1.1594,-9.7741,1.8894,7.0375,172.7108,0.0000,0.0000,0.0000,0.0000,0.0000,nothing
234104,-0.2080,0.0813,0.0196,0.2915,1.1888,-9.7436,1.8706,7.0290,172.7239,0.0000,0.0000,0.0000,0.0000,0.0000,nothing
234220,-0.2116,0.0727,-0.0267,0.2550,1.2199,-9.7495,1.8322,7.0391,172.7240,0.0000,0.0000,0.0000,0.0000,0.0000,nothing
234336,-0.1868,0.0708,0.0394,0.3400,1.0876,-9.7310,1.8478,6.9727,172.7843,0.0000,0.0000,0.0000,0.0000,0.0000,nothing
234452,-0.1864,0.0281,-0.0271,0.3801,1.1989,-9.7370,1.8849,6.9769,172.7706,0.0000,0.0000,0.0000,0.0000,0.0000,nothing
234568,-0.2259,0.0735,0.0436,0.2789,1.2528,-9.7334,1.8592,7.0123,172.7430,0.0000,0.0000,0.0000,0.0000,0.0000,nothing
234684,-0.2601,0.0387,0.0399,0.3765,1.1582,-9.7412,1.8931,6.9887,172.7570,0.0000,0.0000,0.0000,0.0000,0.0000,nothing
234800,-0.1921,0.0718,0.0094,0.2933,1.2175,-9.7412,1.8749,7.0019,172.7490,0.0000,0.0000,0.0000,0.0000,0.0000,nothing
234916,-0.2158,0.0837,0.0271,0.3579,1.2450,-9.7334,1.8963,7.0302,172.7161,0.0000,0.0000,0.0000,0.0000,0.0000,nothing
235032,-0.2247,0.0672,-0.0060,0.3412,1.1983,-9.7436,1.9057,7.0279,172.7158,0.0000,0.0000,0.0000,0.0000,0.0000,nothing
235148,-0.2015,0.0431,0.0132,0.3047,1.1930,-9.7310,1.8932,7.0237,172.7232,0.0000,0.0000,0.0000,0.0000,0.0000,nothing
235264,-0.2245,0.0609,0.0086,0.2718,1.1888,-9.7747,1.8619,7.0144,172.7403,0.0000,0.0000,0.0000,0.0000,0.0000,nothing
235380,-0.2263,0.0819,0.0015,0.3232,1.1989,-9.7346,1.8644,7.0147,172.7393,0.0000,0.0000,0.0000,0.0000,0.0000,nothing
235496,-0.1748,0.0548,0.0582,0.3304,1.2187,-9.7633,1.8703,7.0244,172.7285,0.0000,0.0000,0.0000,0.0000,0.0000,nothing
235612,-0.1716,0.0660,-0.0608,0.3125,1.2055,-9.7436,1.8656,7.0269,172.7272,0.0000,0.0000,0.0000,0.0000,0.0000,nothing
235728,-0.1941,0.0667,0.0052,0.3579,1.1582,-9.7771,1.8873,6.9993,172.7483,0.0000,0.0000,0.0000,0.0000,0.0000,nothing
235844,-0.2097,0.0698,0.0552,0.2993,1.3001,-9.7471,1.8729,7.0588,172.6945,0.0000,0.0000,0.0000,0.0000,0.0000,nothing
235960,-0.3251,0.1440,0.0172,0.2759,1.7143,-9.5777,1.8485,7.3645,172.4045,0.0000,0.0000,0.0000,0.0000,0.0000,nothing
236076,-0.1943,0.0185,0.0015,0.2592,0.8087,-9.6089,1.8183,7.1131,172.6559,0.0000,0.0000,0.0000,0.0000,0.0000,nothing
236192,0.0259,-0.0181,-0.0444,0.3681,1.0643,-9.7759,1.8510,7.0223,172.7355,0.0000,0.0000,0.0000,0.0000,0.0000,nothing
236308,-0.1464,0.0529,-0.0215,0.3304,1.3312,-9.7142,1.8589,7.1000,172.6583,0.0000,0.0000,0.0000,0.0000,0.0000,nothing
236424,-0.2333,0.0762,-0.0030,0.3089,1.2941,-9.7286,1.8533,7.1474,172.6138,0.0000,0.0000,0.0000,0.0000,0.0000,nothing
236540,-0.2427,0.0800,0.0089,0.3214,1.2714,-9.7202,1.8557,7.1774,172.5841,0.0000,0.0000,0.0000,0.0000,0.0000,nothing
236656,-0.2403,0.0886,-0.0153,0.3723,1.2301,-9.7442,1.8873,7.1787,172.5749,0.0000,0.0000,0.0000,0.0000,0.0000,nothing
236772,-0.2146,0.0551,0.0082,0.2682,1.2319,-9.7675,1.8545,7.1793,172.5826,0.0000,0.0000,0.0000,0.0000,0.0000,nothing
236888,-0.2019,0.0543,0.0179,0.3508,1.1870,-9.7220,1.8741,7.1571,172.5991,0.0000,0.0000,0.0000,0.0000,0.0000,nothing
237004,-0.2110,0.0776,-0.0334,0.3340,1.2259,-9.7705,1.8810,7.1561,172.5983,0.0000,0.0000,0.0000,0.0000,0.0000,nothing
237120,-0.2273,0.0562,0.0563,0.2867,1.1906,-9.7525,1.8600,7.1362,172.6230,0.0000,0.0000,0.0000,0.0000,0.0000,nothing
237236,-0.2086,0.0521,0.0384,0.3226,1.1672,-9.7687,1.8619,7.1035,172.6541,0.0000,0.0000,0.0000,0.0000,0.0000,nothing
237352,-0.1780,0.0592,-0.0040,0.3226,1.2115,-9.7669,1.8634,7.0998,172.6573,0.0000,0.0000,0.0000,0.0000,0.0000,nothing
237468,-0.2001,0.0668,0.0717,0.3071,1.2025,-9.7735,1.8557,7.0909,172.6679,0.0000,0.0000,0.0000,0.0000,0.0000,nothing
237584,-0.1570,0.0897,0.0468,0.3131,1.2217,-9.7501,1.8526,7.0957,172.6641,0.0000,0.0000,0.0000,0.0000,0.0000,nothing
237700,-0.1884,0.0753,-0.0303,0.3154,1.3689,-9.7166,1.8515,7.1875,172.5754,0.0000,0.0000,0.0000,0.0000,0.0000,nothing
237816,-0.2034,0.0770,0.0262,0.3023,1.2103,-9.7669,1.8422,7.1748,172.5900,0.0000,0.0000,0.0000,0.0000,0.0000,nothing
237932,-0.1982,0.0664,0.0488,0.3436,1.1870,-9.7561,1.8582,7.1506,172.6095,0.0000,0.0000,0.0000,0.0000,0.0000,nothing
238048,-0.2003,0.0623,0.0165,0.3328,1.2025,-9.7406,1.8666,7.1389,172.6186,0.0000,0.0000,0.0000,0.0000,0.0000,nothing
238164,-0.1812,0.0671,0.0080,0.3065,1.2049,-9.7549,1.8586,7.1288,172.6304,0.0000,0.0000,0.0000,0.0000,0.0000,nothing
238280,-0.2094,0.0548,-0.0109,0.3154,1.1900,-9.7376,1.8569,7.1123,172.6469,0.0000,0.0000,0.0000,0.0000,0.0000,nothing
238396,-0.1790,0.0656,-0.0326,0.3406,1.1983,-9.7938,1.8689,7.0982,172.6574,0.0000,0.0000,0.0000,0.0000,0.0000,nothing
238512,-0.1648,0.0551,0.0348,0.2831,1.2474,-9.7681,1.8467,7.1159,172.6460,0.0000,0.0000,0.0000,0.0000,0.0000,nothing
238628,-0.1967,0.0657,-0.0188,0.3274,1.1487,-9.7447,1.8531,7.0762,172.6827,0.0000,0.0000,0.0000,0.0000,0.0000,nothing
238744,-0.1562,0.0319,-0.0044,0.2999,1.2001,-9.7447,1.8428,7.0704,172.6910,0.0000,0.0000,0.0000,0.0000,0.0000,nothing
238860,-0.1954,0.0562,-0.0485,0.3304,1.1989,-9.7304,1.8515,7.0654,172.6936,0.0000,0.0000,0.0000,0.0000,0.0000,nothing
238976,-0.1753,0.0680,0.0040,0.3268,1.2235,-9.7166,1.8575,7.0761,172.6818,0.0000,0.0000,0.0000,0.0000,0.0000,nothing
239092,-0.1949,0.0523,0.0200,0.3023,1.1762,-9.7651,1.8477,7.0549,172.7047,0.0000,0.0000,0.0000,0.0000,0.0000,nothing
239208,-0.1767,0.0784,0.0224,0.3352,1.1858,-9.7286,1.8588,7.0440,172.7125,0.0000,0.0000,0.0000,0.0000,0.0000,nothing
239324,-0.1843,0.0368,-0.0005,0.2789,1.2462,-9.7388,1.8357,7.0685,172.6947,0.0000,0.0000,0.0000,0.0000,0.0000,nothing
239440,-0.1913,0.0408,0.0199,0.3609,1.2193,-9.7202,1.8631,7.0761,172.6803,0.0000,0.0000,0.0000,0.0000,0.0000,nothing
239556,-0.2305,0.0852,-0.0203,0.2933,1.2480,-9.7866,1.8470,7.0950,172.6661,0.0000,0.0000,0.0000,0.0000,0.0000,nothing
239672,-0.1767,0.0699,-0.0158,0.3490,1.2085,-9.7250,1.8662,7.0935,172.6627,0.0000,0.0000,0.0000,0.0000,0.0000,nothing
239788,-0.1948,0.0952,0.0164,0.3131,1.2384,-9.7412,1.8622,7.1083,172.6494,0.0000,0.0000,0.0000,0.0000,0.0000,nothing
239904,-0.2252,0.0954,-0.0469,0.3430,1.2175,-9.7106,1.8766,7.1116,172.6424,0.0000,0.0000,0.0000,0.0000,0.0000,nothing
240020,-0.1816,0.0635,-0.0106,0.2807,1.2133,-9.7244,1.8531,7.1114,172.6487,0.0000,0.0000,0.0000,0.0000,0.0000,nothing
240136,-0.1869,0.0803,0.0568,0.3184,1.2157,-9.7531,1.8533,7.1104,172.6496,0.0000,0.0000,0.0000,0.0000,0.0000,nothing
240252,-0.2173,0.0581,0.0219,0.3268,1.2253,-9.7447,1.8586,7.1156,172.6432,0.0000,0.0000,0.0000,0.0000,0.0000,nothing
240368,-0.1652,0.0806,-0.0439,0.3262,1.2013,-9.7436,1.8631,7.1065,172.6509,0.0000,0.0000,0.0000,0.0000,0.0000,nothing
240484,-0.2219,0.1061,-0.0037,0.2496,1.4168,-9.7094,1.8225,7.2258,172.5455,0.0000,0.0000,0.0000,0.0000,0.0000,nothing
240600,-0.1107,0.0982,-0.0301,0.3957,0.9942,-9.6765,1.8728,7.0904,172.6639,0.0000,0.0000,0.0000,0.0000,0.0000,nothing
240716,-0.1767,0.0284,-0.0518,0.4447,1.2522,-9.8627,1.9426,7.1045,172.6321,0.0000,0.0000,0.0000,0.0000,0.0000,nothing
240832,-0.2008,0.0404,0.0221,0.2191,1.3043,-9.6849,1.8771,7.1606,172.5949,0.0000,0.0000,0.0000,0.0000,0.0000,nothing
240948,-0.2328,0.0739,0.0127,0.3915,1.0732,-9.7190,1.9185,7.0745,172.6674,0.0000,0.0000,0.0000,0.0000,0.0000,nothing
241064,-0.2026,0.0799,-0.0483,0.2795,1.1971,-9.7352,1.8899,7.0678,172.6814,0.0000,0.0000,0.0000,0.0000,0.0000,nothing
241180,-0.2484,0.0881,0.0721,0.2879,1.2091,-9.7442,1.8689,7.0681,172.6866,0.0000,0.0000,0.0000,0.0000,0.0000,nothing
241296,-0.2106,0.0690,-0.0194,0.3310,1.1959,-9.7412,1.8752,7.0608,172.6920,0.0000,0.0000,0.0000,0.0000,0.0000,nothing
241412,-0.2012,0.0570,-0.0086,0.3556,1.1953,-9.7789,1.8944,7.0511,172.6963,0.0000,0.0000,0.0000,0.0000,0.0000,nothing
241528,-0.2304,0.0518,-0.0121,0.2598,1.3091,-9.7370,1.8564,7.1115,172.6477,0.0000,0.0000,0.0000,0.0000,0.0000,nothing
241644,-0.2248,0.0915,-0.0108,0.3478,1.2474,-9.7346,1.8737,7.1301,172.6253,0.0000,0.0000,0.0000,0.0000,0.0000,nothing
241760,-0.2249,0.0480,-0.0199,0.3262,1.1756,-9.7663,1.8763,7.1031,172.6508,0.0000,0.0000,0.0000,0.0000,0.0000,nothing
241876,-0.2154,0.0616,-0.0102,0.2496,1.1912,-9.7543,1.8341,7.0888,172.6754,0.0000,0.0000,0.0000,0.0000,0.0000,nothing
241992,-0.2026,0.0579,-0.0086,0.3137,1.1708,-9.7076,1.8345,7.0673,172.6961,0.0000,0.0000,0.0000,0.0000,0.0000,nothing
242108,-0.1690,0.0673,0.0199,0.3544,1.1965,-9.7537,1.8576,7.0595,172.6978,0.0000,0.0000,0.0000,0.0000,0.0000,nothing
242224,-0.2143,0.0901,-0.0093,0.3286,1.2821,-9.7615,1.8630,7.1015,172.6557,0.0000,0.0000,0.0000,0.0000,0.0000,nothing
242340,-0.2573,0.0070,-0.0263,0.2370,1.3127,-9.8387,1.8130,7.1516,172.6198,0.0000,0.0000,0.0000,0.0000,0.0000,nothing
242456,-0.2638,0.0887,0.0611,0.3166,1.2313,-9.7352,1.8165,7.1569,172.6138,0.0000,0.0000,0.0000,0.0000,0.0000,nothing
242572,-0.2054,0.0491,-0.0311,0.3256,1.1523,-9.7783,1.8243,7.1128,172.6546,0.0000,0.0000,0.0000,0.0000,0.0000,nothing
242688,-0.2027,0.0375,0.0290,0.3334,1.1648,-9.7627,1.8361,7.0815,172.6819,0.0000,0.0000,0.0000,0.0000,0.0000,nothing
242804,-0.1821,0.0573,-0.0466,0.3119,1.2067,-9.7777,1.8338,7.0766,172.6873,0.0000,0.0000,0.0000,0.0000,0.0000,nothing
242920,-0.1808,0.0739,0.0275,0.3160,1.2474,-9.7495,1.8346,7.0977,172.6667,0.0000,0.0000,0.0000,0.0000,0.0000,nothing
243036,-0.1805,0.0813,-0.0113,0.3627,1.1762,-9.7208,1.8632,7.0774,172.6790,0.0000,0.0000,0.0000,0.0000,0.0000,nothing
243152,-0.2207,0.0871,0.0638,0.2490,1.2648,-9.7651,1.8217,7.1075,172.6604,0.0000,0.0000,0.0000,0.0000,0.0000,nothing
243268,-0.1903,0.0757,0.0120,0.3406,1.1852,-9.7549,1.8380,7.0890,172.6742,0.0000,0.0000,0.0000,0.0000,0.0000,nothing
243384,-0.2026,0.0626,-0.0026,0.4040,1.1690,-9.7442,1.8899,7.0637,172.6853,0.0000,0.0000,0.0000,0.0000,0.0000,nothing
243500,-0.2165,0.0641,0.0160,0.2957,1.1744,-9.7076,1.8742,7.0469,172.7057,0.0000,0.0000,0.0000,0.0000,0.0000,nothing
243616,-0.1607,0.0774,0.0783,0.2921,1.1846,-9.7789,1.8566,7.0326,172.7241,0.0000,0.0000,0.0000,0.0000,0.0000,nothing
243732,-0.1877,0.0589,-0.0143,0.3077,1.1953,-9.7190,1.8509,7.0301,172.7279,0.0000,0.0000,0.0000,0.0000,0.0000,nothing
243848,-0.1922,0.0357,-0.0005,0.3603,1.2211,-9.7501,1.8758,7.0405,172.7114,0.0000,0.0000,0.0000,0.0000,0.0000,nothing
243964,-0.1899,0.0882,-0.0206,0.2975,1.2103,-9.7495,1.8617,7.0438,172.7119,0.0000,0.0000,0.0000,0.0000,0.0000,nothing
244080,-0.1914,0.0648,0.0397,0.3125,1.1852,-9.7388,1.8579,7.0329,172.7234,0.0000,0.0000,0.0000,0.0000,0.0000,nothing
244196,-0.1911,0.0444,0.0023,0.3490,1.1918,-9.7519,1.8756,7.0259,172.7256,0.0000,0.0000,0.0000,0.0000,0.0000,nothing
244312,-0.1873,0.0693,-0.0303,0.2694,1.2091,-9.7483,1.8451,7.0301,172.7294,0.0000,0.0000,0.0000,0.0000,0.0000,nothing
244428,-0.2091,0.0892,0.0040,0.3579,1.2043,-9.7507,1.8693,7.0307,172.7226,0.0000,0.0000,0.0000,0.0000,0.0000,nothing
244544,-0.1827,0.0299,0.0195,0.3382,1.0732,-9.7202,1.8804,6.9576,172.7903,0.0000,0.0000,0.0000,0.0000,0.0000,nothing
244660,-0.1981,0.0886,-0.0241,0.3011,1.1786,-9.7657,1.8676,6.9497,172.8013,0.0000,0.0000,0.0000,0.0000,0.0000,nothing
244776,-0.1843,0.0641,0.0399,0.3226,1.1672,-9.7118,1.8698,6.9397,172.8104,0.0000,0.0000,0.0000,0.0000,0.0000,nothing
244892,-0.1924,0.0635,-0.0209,0.2963,1.2241,-9.7555,1.8554,6.9606,172.7940,0.0000,0.0000,0.0000,0.0000,0.0000,nothing
245008,-0.2179,0.0573,0.0161,0.3292,1.2211,-9.7465,1.8618,6.9783,172.7752,0.0000,0.0000,0.0000,0.0000,0.0000,nothing
245124,-0.1768,0.0457,0.0194,0.3370,1.1864,-9.7711,1.8717,6.9723,172.7784,0.0000,0.0000,0.0000,0.0000,0.0000,nothing
245240,-0.2116,0.0693,0.0037,0.2987,1.2121,-9.7585,1.8585,6.9828,172.7717,0.0000,0.0000,0.0000,0.0000,0.0000,nothing
245356,-0.2086,0.0665,-0.0044,0.2933,1.2079,-9.7519,1.8436,6.9903,172.7683,0.0000,0.0000,0.0000,0.0000,0.0000,nothing
245472,-0.2403,0.0581,-0.0357,0.3292,1.1965,-9.7280,1.8516,6.9921,172.7645,0.0000,0.0000,0.0000,0.0000,0.0000,nothing
245588,-0.1894,0.0776,-0.0410,0.3262,1.2133,-9.7471,1.8567,7.0021,172.7536,0.0000,0.0000,0.0000,0.0000,0.0000,nothing
245704,-0.1876,0.0504,0.0031,0.3059,1.2079,-9.7465,1.8494,7.0080,172.7497,0.0000,0.0000,0.0000,0.0000,0.0000,nothing
245820,-0.2155,0.0913,-0.0459,0.3388,1.1924,-9.7519,1.8620,7.0039,172.7505,0.0000,0.0000,0.0000,0.0000,0.0000,nothing
245936,-0.2050,0.0574,-0.0052,0.3143,1.2001,-9.7483,1.8590,7.0050,172.7502,0.0000,0.0000,0.0000,0.0000,0.0000,nothing
246052,-0.1791,0.0783,-0.0067,0.2933,1.1924,-9.7166,1.8448,7.0037,172.7550,0.0000,0.0000,0.0000,0.0000,0.0000,nothing
246168,-0.1828,0.0635,0.0393,0.3334,1.2235,-9.7615,1.8544,7.0174,172.7393,0.0000,0.0000,0.0000,0.0000,0.0000,nothing
246284,-0.1944,0.0548,0.0558,0.2915,1.2217,-9.7136,1.8396,7.0321,172.7289,0.0000,0.0000,0.0000,0.0000,0.0000,nothing
246400,-0.1639,0.0947,-0.0191,0.3083,1.2127,-9.7675,1.8350,7.0363,172.7260,0.0000,0.0000,0.0000,0.0000,0.0000,nothing
246516,-0.2007,0.0552,0.0230,0.3675,1.1828,-9.7771,1.8653,7.0220,172.7321,0.0000,0.0000,0.0000,0.0000,0.0000,nothing
246632,-0.2266,0.0671,0.0110,0.3095,1.1983,-9.7495,1.8592,7.0201,172.7354,0.0000,0.0000,0.0000,0.0000,0.0000,nothing
246748,-0.1941,0.0807,-0.1013,0.3095,1.2283,-9.7561,1.8535,7.0354,172.7222,0.0000,0.0000,0.0000,0.0000,0.0000,nothing
246864,-0.1990,0.0868,0.0155,0.3520,1.2175,-9.7717,1.8729,7.0416,172.7111,0.0000,0.0000,0.0000,0.0000,0.0000,nothing
246980,-0.1810,0.0997,0.1088,0.2861,1.2438,-9.7400,1.8526,7.0649,172.6939,0.0000,0.0000,0.0000,0.0000,0.0000,nothing
247096,-0.2116,0.0479,-0.0045,0.3394,1.2420,-9.7364,1.8653,7.0849,172.6712,0.0000,0.0000,0.0000,0.0000,0.0000,nothing
247212,-0.2202,0.0540,-0.0369,0.3208,1.2426,-9.6987,1.8667,7.1060,172.6504,0.0000,0.0000,0.0000,0.0000,0.0000,nothing
247328,-0.2067,0.0628,0.0147,0.3178,1.1906,-9.7651,1.8651,7.0902,172.6662,0.0000,0.0000,0.0000,0.0000,0.0000,nothing
247444,-0.2091,0.0658,0.0052,0.3041,1.2366,-9.7495,1.8558,7.1037,172.6555,0.0000,0.0000,0.0000,0.0000,0.0000,nothing
247560,-0.1926,0.0658,0.0622,0.3526,1.1965,-9.7208,1.8763,7.0946,172.6590,0.0000,0.0000,0.0000,0.0000,0.0000,nothing
247676,-0.2159,0.0589,-0.0053,0.3095,1.3731,-9.7669,1.8684,7.1854,172.5732,0.0000,0.0000,0.0000,0.0000,0.0000,nothing
247792,-0.2014,0.0950,0.0344,0.3154,1.2091,-9.7304,1.8658,7.1749,172.5840,0.0000,0.0000,0.0000,0.0000,0.0000,nothing
247908,-0.2222,0.0702,-0.0309,0.2909,1.2103,-9.7358,1.8491,7.1657,172.5971,0.0000,0.0000,0.0000,0.0000,0.0000,nothing
248024,-0.2151,0.0695,-0.0232,0.3448,1.2043,-9.7322,1.8655,7.1541,172.6042,0.0000,0.0000,0.0000,0.0000,0.0000,nothing
248140,-0.2458,0.0668,0.0540,0.3113,1.2055,-9.7430,1.8606,7.1437,172.6155,0.0000,0.0000,0.0000,0.0000,0.0000,nothing
248256,-0.1682,0.0968,0.0304,0.3316,1.2001,-9.7376,1.8681,7.1316,172.6253,0.0000,0.0000,0.0000,0.0000,0.0000,nothing
248372,-0.2117,0.0803,-0.0149,0.3603,1.1947,-9.7334,1.8917,7.1178,172.6326,0.0000,0.0000,0.0000,0.0000,0.0000,nothing
248488,-0.1872,0.0751,0.0476,0.3083,1.2031,-9.7406,1.8824,7.1098,172.6428,0.0000,0.0000,0.0000,0.0000,0.0000,nothing
248604,-0.1964,0.0656,0.0408,0.3370,1.2151,-9.7436,1.8908,7.1092,172.6411,0.0000,0.0000,0.0000,0.0000,0.0000,nothing
248720,-0.2146,0.0868,-0.0315,0.3011,1.2109,-9.7675,1.8769,7.1047,172.6491,0.0000,0.0000,0.0000,0.0000,0.0000,nothing
248836,-0.1926,0.0774,0.0682,0.3370,1.1900,-9.7316,1.8860,7.0910,172.6600,0.0000,0.0000,0.0000,0.0000,0.0000,nothing
248952,-0.1759,0.0509,0.0305,0.3280,1.2169,-9.7304,1.8890,7.0943,172.6560,0.0000,0.0000,0.0000,0.0000,0.0000,nothing
249068,-0.2274,0.0784,-0.0271,0.2909,1.1870,-9.7028,1.8706,7.0821,172.6726,0.0000,0.0000,0.0000,0.0000,0.0000,nothing
249184,-0.1697,0.0454,0.0226,0.3364,1.2109,-9.7424,1.8798,7.0820,172.6703,0.0000,0.0000,0.0000,0.0000,0.0000,nothing
249300,-0.2046,0.0697,0.0008,0.3508,1.2307,-9.7268,1.8967,7.0944,172.6539,0.0000,0.0000,0.0000,0.0000,0.0000,nothing
249416,-0.2327,0.0787,0.0224,0.3083,1.2229,-9.7459,1.8868,7.0998,172.6513,0.0000,0.0000,0.0000,0.0000,0.0000,nothing
249532,-0.1674,0.0453,0.0026,0.3364,1.2253,-9.7124,1.8949,7.1084,172.6409,0.0000,0.0000,0.0000,0.0000,0.0000,nothing
249648,-0.2162,0.0714,0.0053,0.2741,1.2253,-9.7304,1.8656,7.1150,172.6421,0.0000,0.0000,0.0000,0.0000,0.0000,nothing
249764,-0.2188,0.0847,0.0034,0.3065,1.1852,-9.7220,1.8583,7.0982,172.6602,0.0000,0.0000,0.0000,0.0000,0.0000,nothing
249880,-0.2147,0.0702,0.0718,0.3448,1.2247,-9.7166,1.8740,7.1063,172.6483,0.0000,0.0000,0.0000,0.0000,0.0000,nothing
249996,-0.2038,0.0658,0.0209,0.3304,1.1995,-9.7406,1.8795,7.0973,172.6556,0.0000,0.0000,0.0000,0.0000,0.0000,nothing
250112,-0.1937,0.0769,-0.0243,0.3190,1.2169,-9.7735,1.8770,7.0969,172.6566,0.0000,0.0000,0.0000,0.0000,0.0000,nothing
250228,-0.1891,0.0616,-0.0289,0.3160,1.2073,-9.7501,1.8736,7.0928,172.6615,0.0000,0.0000,0.0000,0.0000,0.0000,nothing
250344,-0.1907,0.0713,0.0421,0.3113,1.1989,-9.7418,1.8679,7.0847,172.6707,0.0000,0.0000,0.0000,0.0000,0.0000,nothing
250460,-0.2074,0.0363,0.0089,0.3166,1.2313,-9.7627,1.8654,7.0947,172.6617,0.0000,0.0000,0.0000,0.0000,0.0000,nothing
250576,-0.2177,0.0642,0.0352,0.3148,1.2127,-9.7513,1.8623,7.0938,172.6634,0.0000,0.0000,0.0000,0.0000,0.0000,nothing
250692,-0.1869,0.0671,0.0890,0.3244,1.2205,-9.7513,1.8652,7.0974,172.6591,0.0000,0.0000,0.0000,0.0000,0.0000,nothing
250808,-0.2065,0.0740,-0.0112,0.3412,1.1983,-9.7382,1.8778,7.0888,172.6642,0.0000,0.0000,0.0000,0.0000,0.0000,nothing
250924,-0.1862,0.0631,-0.0244,0.3089,1.2229,-9.7663,1.8698,7.0933,172.6620,0.0000,0.0000,0.0000,0.0000,0.0000,nothing
251040,-0.2209,0.0823,0.0337,0.2927,1.1774,-9.7322,1.8538,7.0735,172.6852,0.0000,0.0000,0.0000,0.0000,0.0000,nothing
251156,-0.2020,0.0826,0.0346,0.3496,1.2109,-9.7579,1.8721,7.0731,172.6809,0.0000,0.0000,0.0000,0.0000,0.0000,nothing
251272,-0.1809,0.0609,-0.0252,0.3101,1.2205,-9.7651,1.8653,7.0779,172.6780,0.0000,0.0000,0.0000,0.0000,0.0000,nothing
251388,-0.2230,0.0708,0.0210,0.2783,1.2145,-9.7316,1.8414,7.0812,172.6810,0.0000,0.0000,0.0000,0.0000,0.0000,nothing
251504,-0.1888,0.0544,0.0155,0.3226,1.2085,-9.7567,1.8452,7.0788,172.6823,0.0000,0.0000,0.0000,0.0000,0.0000,nothing
251620,-0.2174,0.0544,-0.0304,0.3454,1.2109,-9.7292,1.8624,7.0799,172.6768,0.0000,0.0000,0.0000,0.0000,0.0000,nothing
251736,-0.2086,0.0732,-0.0281,0.3053,1.2295,-9.7741,1.8537,7.0885,172.6707,0.0000,0.0000,0.0000,0.0000,0.0000,nothing
251852,-0.1834,0.0562,0.0620,0.3436,1.2025,-9.7741,1.8681,7.0806,172.6746,0.0000,0.0000,0.0000,0.0000,0.0000,nothing
251968,-0.2326,0.0529,-0.0303,0.3017,1.2456,-9.7226,1.8576,7.1023,172.6564,0.0000,0.0000,0.0000,0.0000,0.0000,nothing
252084,-0.2219,0.0643,-0.0365,0.3244,1.1924,-9.7130,1.8617,7.0915,172.6657,0.0000,0.0000,0.0000,0.0000,0.0000,nothing
252200,-0.2056,0.0549,0.0060,0.3262,1.1636,-9.7459,1.8659,7.0629,172.6924,0.0000,0.0000,0.0000,0.0000,0.0000,nothing
252316,-0.2069,0.0774,0.0394,0.2801,1.1953,-9.7328,1.8430,7.0565,172.7044,0.0000,0.0000,0.0000,0.0000,0.0000,nothing
252432,-0.1926,0.0806,0.0447,0.3328,1.2229,-9.7274,1.8531,7.0670,172.6917,0.0000,0.0000,0.0000,0.0000,0.0000,nothing
252548,-0.1780,0.0613,0.0427,0.3035,1.2349,-9.7747,1.8442,7.0800,172.6814,0.0000,0.0000,0.0000,0.0000,0.0000,nothing
252664,-0.2105,0.0832,-0.0056,0.3304,1.1786,-9.6993,1.8534,7.0645,172.6940,0.0000,0.0000,0.0000,0.0000,0.0000,nothing
252780,-0.1921,0.0541,0.0097,0.2927,1.1977,-9.7376,1.8390,7.0590,172.7031,0.0000,0.0000,0.0000,0.0000,0.0000,nothing
252896,-0.2104,0.1002,0.0132,0.3400,1.2133,-9.7112,1.8540,7.0648,172.6936,0.0000,0.0000,0.0000,0.0000,0.0000,nothing
253012,-0.1812,0.0458,-0.0222,0.3298,1.2037,-9.7651,1.8606,7.0606,172.6959,0.0000,0.0000,0.0000,0.0000,0.0000,nothing
253128,-0.2099,0.0487,0.0187,0.3083,1.2774,-9.7100,1.8548,7.1035,172.6559,0.0000,0.0000,0.0000,0.0000,0.0000,nothing
253244,-0.1963,0.0708,-0.0263,0.3160,1.2343,-9.7310,1.8539,7.1157,172.6444,0.0000,0.0000,0.0000,0.0000,0.0000,nothing
253360,-0.2121,0.0583,-0.0196,0.3550,1.2480,-9.7244,1.8758,7.1349,172.6201,0.0000,0.0000,0.0000,0.0000,0.0000,nothing
253476,-0.2129,0.0664,-0.0125,0.2622,1.2301,-9.7501,1.8410,7.1402,172.6238,0.0000,0.0000,0.0000,0.0000,0.0000,nothing
253592,-0.1951,0.0656,0.0571,0.3526,1.1912,-9.7890,1.8618,7.1195,172.6387,0.0000,0.0000,0.0000,0.0000,0.0000,nothing
253708,-0.1813,0.0619,-0.0100,0.2765,1.2534,-9.7340,1.8370,7.1410,172.6241,0.0000,0.0000,0.0000,0.0000,0.0000,nothing
253824,-0.2147,0.0626,0.0191,0.3035,1.1959,-9.7459,1.8303,7.1261,172.6402,0.0000,0.0000,0.0000,0.0000,0.0000,nothing
253940,-0.1716,0.0615,0.0068,0.3226,1.2121,-9.7166,1.8360,7.1242,172.6407,0.0000,0.0000,0.0000,0.0000,0.0000,nothing
254056,-0.2064,0.0656,0.0138,0.3544,1.1959,-9.7519,1.8590,7.1105,172.6481,0.0000,0.0000,0.0000,0.0000,0.0000,nothing
254172,-0.2042,0.0645,-0.0025,0.2735,1.2420,-9.7100,1.8332,7.1280,172.6376,0.0000,0.0000,0.0000,0.0000,0.0000,nothing
254288,-0.1996,0.0829,0.0034,0.3256,1.2115,-9.7489,1.8397,7.1232,172.6407,0.0000,0.0000,0.0000,0.0000,0.0000,nothing
254404,-0.1834,0.0660,-0.0154,0.2897,1.2085,-9.7681,1.8243,7.1159,172.6517,0.0000,0.0000,0.0000,0.0000,0.0000,nothing
254520,-0.2105,0.0687,-0.0049,0.3286,1.2139,-9.7753,1.8330,7.1117,172.6535,0.0000,0.0000,0.0000,0.0000,0.0000,nothing
254636,-0.1855,0.0725,0.0004,0.3250,1.0972,-9.7316,1.8398,7.0436,172.7177,0.0000,0.0000,0.0000,0.0000,0.0000,nothing
254752,-0.2151,0.0398,-0.0211,0.3268,1.1894,-9.7525,1.8463,7.0342,172.7252,0.0000,0.0000,0.0000,0.0000,0.0000,nothing
254868,-0.1831,0.0758,0.0018,0.2544,1.1930,-9.7489,1.8101,7.0282,172.7402,0.0000,0.0000,0.0000,0.0000,0.0000,nothing
254984,-0.1979,0.0708,0.0401,0.2885,1.1965,-9.7513,1.7973,7.0246,172.7469,0.0000,0.0000,0.0000,0.0000,0.0000,nothing
255100,-0.2004,0.0434,0.0170,0.3418,1.2145,-9.7436,1.8169,7.0323,172.7345,0.0000,0.0000,0.0000,0.0000,0.0000,nothing
255216,-0.2067,0.0744,0.0305,0.3041,1.3725,-9.7112,1.8128,7.1330,172.6379,0.0000,0.0000,0.0000,0.0000,0.0000,nothing
255332,-0.1997,0.0763,-0.0594,0.3424,1.1953,-9.7507,1.8312,7.1182,172.6477,0.0000,0.0000,0.0000,0.0000,0.0000,nothing
255448,-0.2378,0.1106,0.0267,0.2987,1.2295,-9.6981,1.8231,7.1285,172.6398,0.0000,0.0000,0.0000,0.0000,0.0000,nothing
255564,-0.2424,0.0536,0.0157,0.3262,1.1810,-9.7477,1.8311,7.1060,172.6595,0.0000,0.0000,0.0000,0.0000,0.0000,nothing
255680,-0.2050,0.0683,-0.0078,0.3418,1.2486,-9.6945,1.8482,7.1288,172.6331,0.0000,0.0000,0.0000,0.0000,0.0000,nothing
255796,-0.2030,0.0646,0.0293,0.2981,1.2151,-9.7561,1.8370,7.1255,172.6391,0.0000,0.0000,0.0000,0.0000,0.0000,nothing
255912,-0.2048,0.0176,0.0183,0.3352,1.2097,-9.7184,1.8493,7.1221,172.6393,0.0000,0.0000,0.0000,0.0000,0.0000,nothing
256028,-0.2337,0.0709,-0.0244,0.3059,1.1953,-9.7573,1.8426,7.1080,172.6547,0.0000,0.0000,0.0000,0.0000,0.0000,nothing
256144,-0.2069,0.0686,0.0264,0.2855,1.2259,-9.7633,1.8245,7.1126,172.6548,0.0000,0.0000,0.0000,0.0000,0.0000,nothing
256260,-0.1999,0.0574,-0.0169,0.3430,1.2103,-9.7250,1.8425,7.1103,172.6525,0.0000,0.0000,0.0000,0.0000,0.0000,nothing
256376,-0.2060,0.0690,0.0619,0.3172,1.1918,-9.7825,1.8426,7.0934,172.6688,0.0000,0.0000,0.0000,0.0000,0.0000,nothing
256492,-0.1681,0.0597,-0.0059,0.3723,1.2343,-9.6568,1.8771,7.1118,172.6422,0.0000,0.0000,0.0000,0.0000,0.0000,หนึ่ง
256608,-0.3610,0.0413,0.0523,0.2741,1.0535,-9.8710,1.8473,7.0085,172.7498,0.0000,0.0000,0.0000,0.0000,0.0000,หนึ่ง
256724,-0.1236,0.0203,-0.0348,0.2556,1.0846,-9.6951,1.8129,6.9461,172.8189,0.0000,0.0000,0.0000,0.0000,0.0000,หนึ่ง
256840,-0.1080,0.0472,-0.0014,0.3998,1.2486,-9.7519,1.8646,6.9807,172.7722,0.0000,0.0000,0.0000,0.0000,0.0000,หนึ่ง
256956,-0.2095,0.0721,-0.0330,0.3448,1.2863,-9.6975,1.8799,7.0375,172.7132,0.0000,0.0000,0.0000,0.0000,0.0000,หนึ่ง
257072,-0.2481,0.0727,-0.0064,0.3562,1.2366,-9.7795,1.8989,7.0541,172.6923,0.0000,0.0000,0.0000,0.0000,0.0000,หนึ่ง
257188,-0.2405,0.0738,-0.0056,0.3244,1.1894,-9.7172,1.8988,7.0461,172.7000,0.0000,0.0000,0.0000,0.0000,0.0000,หนึ่ง
257304,-0.2030,0.0634,0.0063,0.3119,1.1642,-9.7597,1.8907,7.0214,172.7260,0.0000,0.0000,0.0000,0.0000,0.0000,หนึ่ง
257420,-0.1990,0.0806,0.0375,0.3137,1.1947,-9.7268,1.8849,7.0192,172.7297,0.0000,0.0000,0.0000,0.0000,0.0000,หนึ่ง
257536,-0.1639,0.0518,-0.0052,0.2969,1.2085,-9.7771,1.8690,7.0216,172.7315,0.0000,0.0000,0.0000,0.0000,0.0000,หนึ่ง
257652,-0.2014,0.0693,-0.0269,0.3208,1.2193,-9.7142,1.8698,7.0344,172.7189,0.0000,0.0000,0.0000,0.0000,0.0000,หนึ่ง
257768,-0.1568,0.0582,0.0057,0.3023,1.1953,-9.7519,1.8590,7.0295,172.7265,0.0000,0.0000,0.0000,0.0000,0.0000,หนึ่ง
257884,-0.1802,0.0611,0.0080,0.2801,1.2259,-9.7549,1.8363,7.0425,172.7197,0.0000,0.0000,0.0000,0.0000,0.0000,หนึ่ง
258000,-0.2109,0.0649,0.0658,0.3029,1.2097,-9.7250,1.8297,7.0470,172.7170,0.0000,0.0000,0.0000,0.0000,0.0000,หนึ่ง
258116,-0.1978,0.0413,-0.0209,0.3077,1.2085,-9.7741,1.8257,7.0468,172.7182,0.0000,0.0000,0.0000,0.0000,0.0000,หนึ่ง
258232,-0.2140,0.0603,0.0682,0.3160,1.2235,-9.7256,1.8278,7.0587,172.7061,0.0000,0.0000,0.0000,0.0000,0.0000,หนึ่ง
258348,-0.2164,0.0543,-0.0405,0.3071,1.2241,-9.7543,1.8239,7.0678,172.6983,0.0000,0.0000,0.0000,0.0000,0.0000,หนึ่ง
258464,-0.2061,0.0603,-0.0349,0.3089,1.2073,-9.7388,1.8218,7.0674,172.6993,0.0000,0.0000,0.0000,0.0000,0.0000,หนึ่ง
258580,-0.2057,0.0702,-0.0074,0.2831,1.2181,-9.7627,1.8044,7.0715,172.6996,0.0000,0.0000,0.0000,0.0000,0.0000,หนึ่ง
258696,-0.2140,0.0810,-0.0499,0.3472,1.2145,-9.7214,1.8269,7.0760,172.6896,0.0000,0.0000,0.0000,0.0000,0.0000,หนึ่ง
258812,-0.1934,0.0568,-0.0091,0.3089,1.2133,-9.7549,1.8241,7.0771,172.6893,0.0000,0.0000,0.0000,0.0000,0.0000,หนึ่ง
258928,-0.2109,0.0840,0.0029,0.2987,1.2396,-9.7202,1.8163,7.0958,172.6731,0.0000,0.0000,0.0000,0.0000,0.0000,หนึ่ง
259044,-0.2104,0.0780,0.0352,0.3119,1.2085,-9.7046,1.8173,7.0957,172.6729,0.0000,0.0000,0.0000,0.0000,0.0000,หนึ่ง
259160,-0.2251,0.0300,-0.0485,0.3089,1.2450,-9.7412,1.8158,7.1141,172.6555,0.0000,0.0000,0.0000,0.0000,0.0000,หนึ่ง
259276,-0.2143,0.0468,-0.0035,0.3017,1.2265,-9.7280,1.8104,7.1209,172.6502,0.0000,0.0000,0.0000,0.0000,0.0000,หนึ่ง
259392,-0.2247,0.0457,0.0528,0.3370,1.2043,-9.7388,1.8261,7.1134,172.6536,0.0000,0.0000,0.0000,0.0000,0.0000,หนึ่ง
259508,-0.2022,0.0772,0.0010,0.2963,1.2109,-9.7232,1.8167,7.1116,172.6577,0.0000,0.0000,0.0000,0.0000,0.0000,หนึ่ง
259624,-0.2000,0.0768,-0.0004,0.3113,1.1774,-9.7543,1.8165,7.0883,172.6803,0.0000,0.0000,0.0000,0.0000,0.0000,หนึ่ง
259740,-0.2121,0.0927,0.0050,0.2819,1.2229,-9.7298,1.7995,7.0956,172.6775,0.0000,0.0000,0.0000,0.0000,0.0000,หนึ่ง
259856,-0.1670,0.0578,-0.0102,0.3011,1.1953,-9.7567,1.7950,7.0842,172.6897,0.0000,0.0000,0.0000,0.0000,0.0000,หนึ่ง
259972,-0.2161,0.0663,0.0104,0.3125,1.1959,-9.7495,1.7977,7.0747,172.6982,0.0000,0.0000,0.0000,0.0000,0.0000,หนึ่ง
260088,-0.1947,0.0379,-0.0556,0.2616,1.2187,-9.7477,1.7704,7.0796,172.7002,0.0000,0.0000,0.0000,0.0000,0.0000,หนึ่ง
260204,-0.1880,0.0717,-0.0064,0.3358,1.1900,-9.7202,1.7897,7.0692,172.7055,0.0000,0.0000,0.0000,0.0000,0.0000,หนึ่ง
260320,-0.2209,0.0792,-0.0020,0.3178,1.1750,-9.7878,1.7955,7.0464,172.7262,0.0000,0.0000,0.0000,0.0000,0.0000,หนึ่ง
