timestamp_ms,gyro_x,gyro_y,gyro_z,accel_x,accel_y,accel_z,roll,pitch,yaw,adc0,adc1,adc2,adc3,adc4,Label
18808,-0.1843,0.0454,-0.0274,0.3442,1.2295,-9.7747,1.9199,7.1685,172.5762,0.0000,0.0000,0.0000,0.0000,0.0000,nothing
18924,-0.2067,0.0622,0.0109,0.3125,1.2313,-9.7292,1.9104,7.1725,172.5748,0.0000,0.0000,0.0000,0.0000,0.0000,nothing
19040,-0.2072,0.0653,0.0035,0.2861,1.2295,-9.7118,1.8869,7.1765,172.5771,0.0000,0.0000,0.0000,0.0000,0.0000,nothing
19156,-0.1888,0.0523,-0.0255,0.3478,1.2235,-9.7495,1.9009,7.1736,172.5762,0.0000,0.0000,0.0000,0.0000,0.0000,nothing
19272,-0.1864,0.0754,0.0428,0.2969,1.2067,-9.7244,1.8844,7.1634,172.5904,0.0000,0.0000,0.0000,0.0000,0.0000,nothing
19388,-0.2263,0.0961,-0.0236,0.3508,1.2103,-9.6987,1.9014,7.1579,172.5913,0.0000,0.0000,0.0000,0.0000,0.0000,nothing
19504,-0.2105,0.0693,0.0181,0.3071,1.1762,-9.7837,1.8897,7.1272,172.6240,0.0000,0.0000,0.0000,0.0000,0.0000,nothing
19620,-0.2015,0.0174,0.0586,0.2903,1.2187,-9.7412,1.8701,7.1273,172.6290,0.0000,0.0000,0.0000,0.0000,0.0000,nothing
19736,-0.2015,0.0858,0.0499,0.3268,1.2025,-9.7178,1.8743,7.1196,172.6354,0.0000,0.0000,0.0000,0.0000,0.0000,nothing
19852,-0.1966,0.0729,0.0153,0.3442,1.2462,-9.7681,1.8871,7.1343,172.6178,0.0000,0.0000,0.0000,0.0000,0.0000,nothing
19968,-0.2108,0.0909,-0.0443,0.3669,1.2408,-9.7430,1.9123,7.1462,172.5998,0.0000,0.0000,0.0000,0.0000,0.0000,nothing
20084,-0.2274,0.0765,0.0663,0.2855,1.2199,-9.7591,1.8873,7.1437,172.6086,0.0000,0.0000,0.0000,0.0000,0.0000,nothing
20200,-0.2183,0.0770,-0.0521,0.3358,1.2115,-9.7322,1.8947,7.1386,172.6118,0.0000,0.0000,0.0000,0.0000,0.0000,nothing
20316,-0.1948,0.0657,0.0451,0.2688,1.2247,-9.7322,1.8622,7.1417,172.6171,0.0000,0.0000,0.0000,0.0000,0.0000,nothing
20432,-0.1849,0.0528,0.0600,0.3346,1.1840,-9.7591,1.8709,7.1188,172.6370,0.0000,0.0000,0.0000,0.0000,0.0000,nothing
20548,-0.1903,0.0773,-0.0519,0.3208,1.1995,-9.7519,1.8709,7.1078,172.6476,0.0000,0.0000,0.0000,0.0000,0.0000,nothing
20664,-0.1969,0.0758,0.0192,0.4394,1.2115,-9.7358,1.9402,7.1057,172.6316,0.0000,0.0000,0.0000,0.0000,0.0000,nothing
20780,-0.1905,0.0755,0.0579,0.3783,1.2235,-9.7388,1.9669,7.1106,172.6196,0.0000,0.0000,0.0000,0.0000,0.0000,nothing
20896,-0.2424,0.0579,-0.0419,0.3238,1.2366,-9.7310,1.9593,7.1234,172.6093,0.0000,0.0000,0.0000,0.0000,0.0000,nothing
21012,-0.2763,0.0751,0.0421,0.3202,1.2648,-9.7304,1.9503,7.1513,172.5849,0.0000,0.0000,0.0000,0.0000,0.0000,nothing
21128,-0.2544,0.0645,0.0138,0.2694,1.2037,-9.7878,1.9115,7.1369,172.6089,0.0000,0.0000,0.0000,0.0000,0.0000,nothing
21244,-0.2361,0.0972,0.0161,0.3041,1.1834,-9.7747,1.8973,7.1132,172.6356,0.0000,0.0000,0.0000,0.0000,0.0000,nothing
21360,-0.2376,0.0474,0.0113,0.3232,1.2121,-9.7465,1.8960,7.1104,172.6386,0.0000,0.0000,0.0000,0.0000,0.0000,nothing
21476,-0.2228,0.0600,-0.0894,0.3196,1.2067,-9.7394,1.8930,7.1053,172.6444,0.0000,0.0000,0.0000,0.0000,0.0000,nothing
21592,-0.2203,0.0615,-0.0095,0.3131,1.2013,-9.7238,1.8867,7.0987,172.6524,0.0000,0.0000,0.0000,0.0000,0.0000,nothing
21708,-0.2105,0.0727,0.0541,0.3202,1.2115,-9.7567,1.8846,7.0963,172.6553,0.0000,0.0000,0.0000,0.0000,0.0000,nothing
21824,-0.1962,0.0435,0.0519,0.3514,1.2193,-9.6987,1.9019,7.1027,172.6445,0.0000,0.0000,0.0000,0.0000,0.0000,nothing
21940,-0.1208,0.0303,-0.0329,0.2394,1.2355,-9.7023,1.8521,7.1179,172.6427,0.0000,0.0000,0.0000,0.0000,0.0000,หนึ่ง
22056,-0.2316,0.0301,0.0465,0.4675,1.1247,-9.8699,1.9373,7.0548,172.6814,0.0000,0.0000,0.0000,0.0000,0.0000,หนึ่ง
22172,-0.2416,0.0354,-0.0045,0.3202,1.3378,-9.8088,1.9288,7.1261,172.6149,0.0000,0.0000,0.0000,0.0000,0.0000,หนึ่ง
22288,-0.2144,0.0941,0.0626,0.3178,1.2720,-9.7148,1.9218,7.1589,172.5850,0.0000,0.0000,0.0000,0.0000,0.0000,หนึ่ง
22404,-0.2477,0.0781,-0.0294,0.3041,1.2097,-9.7274,1.9073,7.1516,172.5959,0.0000,0.0000,0.0000,0.0000,0.0000,หนึ่ง
22520,-0.2094,0.0598,0.0219,0.3663,1.1528,-9.7591,1.9301,7.1097,172.6304,0.0000,0.0000,0.0000,0.0000,0.0000,หนึ่ง
22636,-0.2071,0.0487,0.0341,0.3143,1.2247,-9.7094,1.9210,7.1172,172.6255,0.0000,0.0000,0.0000,0.0000,0.0000,หนึ่ง
22752,-0.1986,0.0814,0.0787,0.3400,1.2468,-9.7717,1.9266,7.1322,172.6095,0.0000,0.0000,0.0000,0.0000,0.0000,หนึ่ง
22868,-0.2324,0.0593,0.0130,0.3202,1.1798,-9.7232,1.9212,7.1105,172.6319,0.0000,0.0000,0.0000,0.0000,0.0000,หนึ่ง
22984,-0.2244,0.0484,0.0607,0.3256,1.2289,-9.7573,1.9187,7.1169,172.6264,0.0000,0.0000,0.0000,0.0000,0.0000,หนึ่ง
23100,-0.1962,0.0736,-0.0401,0.2873,1.2313,-9.7232,1.8948,7.1266,172.6233,0.0000,0.0000,0.0000,0.0000,0.0000,หนึ่ง
23216,-0.1666,0.0556,-0.0067,0.3154,1.2085,-9.7495,1.8893,7.1202,172.6309,0.0000,0.0000,0.0000,0.0000,0.0000,หนึ่ง
23332,-0.1945,0.0758,0.0034,0.3160,1.2025,-9.7196,1.8852,7.1131,172.6388,0.0000,0.0000,0.0000,0.0000,0.0000,หนึ่ง
23448,-0.1737,0.0585,0.0153,0.3101,1.2223,-9.7364,1.8776,7.1170,172.6370,0.0000,0.0000,0.0000,0.0000,0.0000,หนึ่ง
23564,-0.2179,0.0645,0.0172,0.3376,1.2283,-9.7142,1.8873,7.1254,172.6263,0.0000,0.0000,0.0000,0.0000,0.0000,หนึ่ง
23680,-0.2271,0.0401,0.0769,0.2789,1.2253,-9.7717,1.8608,7.1273,172.6313,0.0000,0.0000,0.0000,0.0000,0.0000,หนึ่ง
23796,-0.2109,0.0791,0.1059,0.2975,1.2295,-9.7040,1.8489,7.1363,172.6257,0.0000,0.0000,0.0000,0.0000,0.0000,หนึ่ง
23912,-0.2380,0.0555,-0.0518,0.3508,1.1804,-9.7388,1.8688,7.1133,172.6428,0.0000,0.0000,0.0000,0.0000,0.0000,หนึ่ง
24028,-0.1849,0.0648,-0.0121,0.3292,1.1977,-9.7412,1.8740,7.1026,172.6519,0.0000,0.0000,0.0000,0.0000,0.0000,หนึ่ง
24144,-0.2363,0.0412,-0.0608,0.3053,1.2079,-9.7412,1.8648,7.0988,172.6579,0.0000,0.0000,0.0000,0.0000,0.0000,หนึ่ง
24260,-0.1771,0.0147,0.0202,0.4010,1.0212,-9.6825,1.9139,6.9913,172.7490,0.0000,0.0000,0.0000,0.0000,0.0000,break_time
24376,-0.0646,-0.0744,0.0691,0.2801,1.2109,-9.7801,1.8852,6.9977,172.7504,0.0000,0.0000,0.0000,0.0000,0.0000,break_time
24492,-0.2164,0.0628,0.0299,0.3394,1.4803,-9.6939,1.8949,7.1655,172.5856,0.0000,0.0000,0.0000,0.0000,0.0000,break_time
24608,-0.2491,0.1043,0.0041,0.3101,1.2582,-9.7615,1.8859,7.1831,172.5709,0.0000,0.0000,0.0000,0.0000,0.0000,break_time
24724,-0.2608,0.0868,0.0123,0.3304,1.2073,-9.7268,1.8903,7.1720,172.5806,0.0000,0.0000,0.0000,0.0000,0.0000,break_time
24840,-0.2206,0.0476,-0.0070,0.3544,1.1654,-9.7477,1.9080,7.1361,172.6107,0.0000,0.0000,0.0000,0.0000,0.0000,break_time
24956,-0.2004,0.0703,0.0057,0.2993,1.2241,-9.7382,1.8919,7.1386,172.6124,0.0000,0.0000,0.0000,0.0000,0.0000,break_time
25072,-0.1974,0.0814,0.0234,0.3238,1.1989,-9.7334,1.8918,7.1266,172.6241,0.0000,0.0000,0.0000,0.0000,0.0000,break_time
25188,-0.1742,0.0333,-0.0237,0.2969,1.1900,-9.7681,1.8754,7.1081,172.6462,0.0000,0.0000,0.0000,0.0000,0.0000,break_time
25304,-0.1659,0.0604,0.0485,0.3322,1.2145,-9.7382,1.8818,7.1078,172.6448,0.0000,0.0000,0.0000,0.0000,0.0000,break_time
25420,-0.1922,0.0863,0.0224,0.3562,1.1971,-9.7418,1.9014,7.0971,172.6500,0.0000,0.0000,0.0000,0.0000,0.0000,break_time
25536,-0.2324,0.0525,-0.0289,0.2837,1.2468,-9.7232,1.8771,7.1178,172.6364,0.0000,0.0000,0.0000,0.0000,0.0000,break_time
25652,-0.1936,0.0810,-0.0135,0.3238,1.2420,-9.7483,1.8781,7.1318,172.6226,0.0000,0.0000,0.0000,0.0000,0.0000,break_time
25768,-0.1934,0.0573,0.0345,0.3148,1.2271,-9.7651,1.8735,7.1344,172.6212,0.0000,0.0000,0.0000,0.0000,0.0000,break_time
25884,-0.2622,0.0514,-0.0406,0.2263,1.2420,-9.7513,1.8180,7.1467,172.6233,0.0000,0.0000,0.0000,0.0000,0.0000,break_time
26000,-0.1423,-0.0179,0.0219,0.2646,1.0146,-9.9117,1.7879,7.0146,172.7589,0.0000,0.0000,0.0000,0.0000,0.0000,break_time
26116,-0.1729,0.0638,-0.0305,0.3550,1.3127,-9.6981,1.8168,7.0832,172.6852,0.0000,0.0000,0.0000,0.0000,0.0000,break_time
26232,-0.1770,0.0751,-0.0243,0.3119,1.2606,-9.7825,1.8162,7.1089,172.6605,0.0000,0.0000,0.0000,0.0000,0.0000,break_time
26348,-0.2030,0.0952,0.0279,0.3609,1.2618,-9.7196,1.8454,7.1371,172.6258,0.0000,0.0000,0.0000,0.0000,0.0000,break_time
26464,-0.2080,0.0720,0.0203,0.3047,1.2600,-9.7328,1.8387,7.1606,172.6047,0.0000,0.0000,0.0000,0.0000,0.0000,break_time
26580,-0.2350,0.0791,0.0211,0.3514,1.2390,-9.7196,1.8601,7.1705,172.5897,0.0000,0.0000,0.0000,0.0000,0.0000,break_time
26696,-0.1951,0.0608,-0.0278,0.3125,1.2331,-9.7561,1.8561,7.1735,172.5879,0.0000,0.0000,0.0000,0.0000,0.0000,break_time
26812,-0.1680,0.0733,0.0065,0.2945,1.2055,-9.7465,1.8423,7.1609,172.6035,0.0000,0.0000,0.0000,0.0000,0.0000,break_time
26928,-0.1947,0.0661,0.0404,0.3520,1.2073,-9.7855,1.8625,7.1477,172.6112,0.0000,0.0000,0.0000,0.0000,0.0000,break_time
27044,-0.2166,0.0618,-0.0143,0.3137,1.2307,-9.7777,1.8586,7.1499,172.6100,0.0000,0.0000,0.0000,0.0000,0.0000,break_time
27160,-0.2155,0.0654,0.0522,0.3322,1.2097,-9.7687,1.8660,7.1405,172.6173,0.0000,0.0000,0.0000,0.0000,0.0000,break_time
27276,-0.2233,0.0663,0.0394,0.3723,1.2031,-9.7346,1.8967,7.1305,172.6190,0.0000,0.0000,0.0000,0.0000,0.0000,nothing
27392,-0.2143,0.0537,0.0244,0.3089,1.2121,-9.7442,1.8872,7.1262,172.6257,0.0000,0.0000,0.0000,0.0000,0.0000,nothing
27508,-0.2009,0.0618,-0.0112,0.3125,1.2085,-9.7663,1.8804,7.1186,172.6347,0.0000,0.0000,0.0000,0.0000,0.0000,nothing
27624,-0.1978,0.0657,0.0555,0.3214,1.2229,-9.7304,1.8801,7.1227,172.6309,0.0000,0.0000,0.0000,0.0000,0.0000,nothing
27740,-0.1765,0.0432,0.0108,0.3436,1.2959,-9.6603,1.8938,7.1736,172.5781,0.0000,0.0000,0.0000,0.0000,0.0000,หนึ่ง
27856,-0.3122,0.0605,0.0116,0.3184,1.2444,-9.7543,1.8899,7.1829,172.5701,0.0000,0.0000,0.0000,0.0000,0.0000,หนึ่ง
27972,-0.1809,0.0731,0.0067,0.2173,1.2426,-9.7442,1.8277,7.1912,172.5778,0.0000,0.0000,0.0000,0.0000,0.0000,หนึ่ง
28088,-0.2057,0.0729,0.0776,0.3232,1.2103,-9.7501,1.8333,7.1793,172.5879,0.0000,0.0000,0.0000,0.0000,0.0000,หนึ่ง
28204,-0.1928,0.0609,0.0284,0.3573,1.2247,-9.7244,1.8587,7.1787,172.5821,0.0000,0.0000,0.0000,0.0000,0.0000,หนึ่ง
28320,-0.1853,0.0645,0.0000,0.3412,1.2259,-9.7477,1.8718,7.1772,172.5802,0.0000,0.0000,0.0000,0.0000,0.0000,หนึ่ง
28436,-0.2071,0.0683,0.0146,0.3196,1.1205,-9.7070,1.8720,7.1179,172.6376,0.0000,0.0000,0.0000,0.0000,0.0000,break_time
28552,-0.0833,0.1044,-0.0117,0.4130,1.2349,-9.7705,1.9251,7.1258,172.6161,0.0000,0.0000,0.0000,0.0000,0.0000,break_time
28668,-0.1827,0.0931,-0.0004,0.3148,1.2175,-9.6873,1.9173,7.1292,172.6149,0.0000,0.0000,0.0000,0.0000,0.0000,break_time
28784,-0.2207,0.0470,0.0563,0.3196,1.2929,-9.7346,1.9120,7.1724,172.5745,0.0000,0.0000,0.0000,0.0000,0.0000,break_time
28900,-0.2192,0.0597,-0.0252,0.3119,1.2307,-9.7519,1.9025,7.1741,172.5754,0.0000,0.0000,0.0000,0.0000,0.0000,break_time
29016,-0.2188,0.0359,0.0723,0.2933,1.2289,-9.7202,1.8838,7.1769,172.5775,0.0000,0.0000,0.0000,0.0000,0.0000,break_time
29132,-0.1907,0.0507,0.1168,0.3508,1.1852,-9.7711,1.8995,7.1503,172.5992,0.0000,0.0000,0.0000,0.0000,0.0000,break_time
29248,-0.1899,0.0665,0.0567,0.2885,1.2468,-9.7483,1.8777,7.1638,172.5917,0.0000,0.0000,0.0000,0.0000,0.0000,break_time
29364,-0.1966,0.1017,0.0320,0.2879,1.1924,-9.7430,1.8580,7.1449,172.6151,0.0000,0.0000,0.0000,0.0000,0.0000,break_time
29480,-0.2210,0.0596,-0.0686,0.3172,1.2307,-9.7406,1.8572,7.1501,172.6102,0.0000,0.0000,0.0000,0.0000,0.0000,break_time
29596,-0.2075,0.0581,0.0630,0.2981,1.2223,-9.7609,1.8451,7.1485,172.6148,0.0000,0.0000,0.0000,0.0000,0.0000,break_time
29712,-0.2020,0.0739,-0.0593,0.2951,1.1936,-9.7872,1.8319,7.1286,172.6375,0.0000,0.0000,0.0000,0.0000,0.0000,break_time
29828,-0.1877,0.0578,0.0530,0.3238,1.2109,-9.7418,1.8377,7.1239,172.6405,0.0000,0.0000,0.0000,0.0000,0.0000,break_time
29944,-0.1919,0.0856,-0.0191,0.2741,1.2139,-9.7501,1.8137,7.1209,172.6494,0.0000,0.0000,0.0000,0.0000,0.0000,break_time
30060,-0.1894,0.0853,-0.0429,0.3208,1.2235,-9.7507,1.8194,7.1236,172.6454,0.0000,0.0000,0.0000,0.0000,0.0000,break_time
30176,-0.1855,0.0536,-0.0604,0.3101,1.2121,-9.7549,1.8181,7.1192,172.6500,0.0000,0.0000,0.0000,0.0000,0.0000,break_time
30292,-0.1887,0.0837,0.0510,0.2963,1.2247,-9.7825,1.8084,7.1205,172.6511,0.0000,0.0000,0.0000,0.0000,0.0000,break_time
30408,-0.2387,0.0436,-0.0446,0.3585,1.1971,-9.7597,1.8364,7.1073,172.6569,0.0000,0.0000,0.0000,0.0000,0.0000,break_time
30524,-0.2116,0.0581,-0.0667,0.3089,1.2055,-9.7675,1.8325,7.0998,172.6651,0.0000,0.0000,0.0000,0.0000,0.0000,break_time
30640,-0.2052,0.0693,0.0589,0.4543,1.2001,-9.7370,1.9143,7.0918,172.6518,0.0000,0.0000,0.0000,0.0000,0.0000,break_time
30756,-0.1720,0.0538,0.0420,0.3609,1.2361,-9.7238,1.9337,7.1066,172.6324,0.0000,0.0000,0.0000,0.0000,0.0000,break_time
30872,-0.2061,0.0830,-0.0612,0.3202,1.2378,-9.7298,1.9273,7.1205,172.6206,0.0000,0.0000,0.0000,0.0000,0.0000,break_time
30988,-0.2442,0.0699,0.1067,0.3645,1.2426,-9.7220,1.9476,7.1363,172.6000,0.0000,0.0000,0.0000,0.0000,0.0000,break_time
31104,-0.2323,0.0697,-0.0990,0.3148,1.2223,-9.7316,1.9367,7.1382,172.6011,0.0000,0.0000,0.0000,0.0000,0.0000,break_time
31220,-0.2184,0.0623,0.0956,0.3119,1.3492,-9.7250,1.9250,7.2138,172.5311,0.0000,0.0000,0.0000,0.0000,0.0000,break_time
31336,-0.1926,0.0658,-0.0818,0.2885,1.1792,-9.7537,1.9007,7.1815,172.5687,0.0000,0.0000,0.0000,0.0000,0.0000,break_time
31452,-0.1725,0.0867,-0.0020,0.3256,1.2361,-9.7501,1.9004,7.1854,172.5650,0.0000,0.0000,0.0000,0.0000,0.0000,nothing
31568,-0.1985,0.0630,-0.0330,0.3472,1.2432,-9.7352,1.9129,7.1942,172.5532,0.0000,0.0000,0.0000,0.0000,0.0000,nothing
31684,-0.2169,0.0654,0.0510,0.3005,1.2486,-9.7160,1.8974,7.2067,172.5452,0.0000,0.0000,0.0000,0.0000,0.0000,nothing
31800,-0.2221,0.0848,0.0160,0.3125,1.2151,-9.7729,1.8893,7.1944,172.5591,0.0000,0.0000,0.0000,0.0000,0.0000,nothing
31916,-0.1862,0.0836,-0.0675,0.3520,1.1912,-9.7382,1.9058,7.1719,172.5766,0.0000,0.0000,0.0000,0.0000,0.0000,nothing
32032,-0.1680,0.0575,0.0162,0.2963,1.2115,-9.7585,1.8878,7.1621,172.5908,0.0000,0.0000,0.0000,0.0000,0.0000,nothing
32148,-0.2144,0.0686,0.0819,0.3113,1.3001,-9.7627,1.8800,7.2041,172.5521,0.0000,0.0000,0.0000,0.0000,0.0000,nothing
32264,-0.2180,0.0667,0.0029,0.3071,1.1858,-9.7178,1.8717,7.1791,172.5784,0.0000,0.0000,0.0000,0.0000,0.0000,nothing
32380,-0.1905,0.0701,0.0289,0.3268,1.2378,-9.7352,1.8753,7.1854,172.5714,0.0000,0.0000,0.0000,0.0000,0.0000,nothing
32496,-0.1997,0.0408,0.0029,0.3376,1.2588,-9.7064,1.8853,7.2053,172.5496,0.0000,0.0000,0.0000,0.0000,0.0000,nothing
32612,-0.1894,0.0733,0.0108,0.2855,1.2402,-9.7495,1.8631,7.2095,172.5512,0.0000,0.0000,0.0000,0.0000,0.0000,nothing
32728,-0.1914,0.0638,0.0018,0.2712,1.2444,-9.7148,1.8355,7.2182,172.5497,0.0000,0.0000,0.0000,0.0000,0.0000,nothing
32844,-0.1618,0.0930,-0.0044,0.3352,1.2378,-9.7346,1.8476,7.2206,172.5443,0.0000,0.0000,0.0000,0.0000,0.0000,nothing
32960,-0.2007,0.0590,-0.0379,0.2909,1.2337,-9.7394,1.8325,7.2202,172.5485,0.0000,0.0000,0.0000,0.0000,0.0000,nothing
33076,-0.1945,0.0462,0.0476,0.3364,1.2295,-9.7567,1.8452,7.2159,172.5495,0.0000,0.0000,0.0000,0.0000,0.0000,nothing
33192,-0.2154,0.0710,0.0219,0.3460,1.2097,-9.7591,1.8622,7.2005,172.5601,0.0000,0.0000,0.0000,0.0000,0.0000,nothing
33308,-0.1635,0.0766,0.0139,0.3220,1.1947,-9.7208,1.8643,7.1808,172.5787,0.0000,0.0000,0.0000,0.0000,0.0000,nothing
33424,-0.2264,0.0690,0.0130,0.3759,1.2714,-9.7669,1.8966,7.2039,172.5481,0.0000,0.0000,0.0000,0.0000,0.0000,nothing
33540,-0.2072,0.0716,-0.0071,0.3711,1.2522,-9.7148,1.9238,7.2174,172.5279,0.0000,0.0000,0.0000,0.0000,0.0000,nothing
33656,-0.2307,0.0714,0.0425,0.3406,1.1870,-9.7136,1.9308,7.1920,172.5507,0.0000,0.0000,0.0000,0.0000,0.0000,nothing
33772,-0.1973,0.0671,-0.1341,0.2646,1.1912,-9.7453,1.8920,7.1694,172.5826,0.0000,0.0000,0.0000,0.0000,0.0000,nothing
33888,-0.2090,0.0898,0.0307,0.4358,1.1822,-9.7549,1.9568,7.1428,172.5913,0.0000,0.0000,0.0000,0.0000,0.0000,nothing
34004,-0.2034,0.0529,-0.0078,0.3184,1.1989,-9.7226,1.9474,7.1312,172.6051,0.0000,0.0000,0.0000,0.0000,0.0000,nothing
34120,-0.1928,0.0840,0.0363,0.4501,1.2295,-9.7890,2.0142,7.1332,172.5850,0.0000,0.0000,0.0000,0.0000,0.0000,nothing
34236,-0.1911,0.0652,-0.0080,0.3406,1.1876,-9.7130,2.0121,7.1166,172.6016,0.0000,0.0000,0.0000,0.0000,0.0000,nothing
34352,-0.1847,0.0547,0.0314,0.3544,1.2444,-9.7447,2.0175,7.1322,172.5851,0.0000,0.0000,0.0000,0.0000,0.0000,nothing
34468,-0.1789,0.0926,-0.0079,0.3310,1.2576,-9.7519,2.0085,7.1534,172.5671,0.0000,0.0000,0.0000,0.0000,0.0000,nothing
34584,-0.2117,0.0691,0.0679,0.3292,1.2337,-9.7585,1.9994,7.1582,172.5650,0.0000,0.0000,0.0000,0.0000,0.0000,nothing
34700,-0.2406,0.0473,-0.0380,0.2921,1.2145,-9.7424,1.9699,7.1527,172.5783,0.0000,0.0000,0.0000,0.0000,0.0000,nothing
34816,-0.2116,0.0661,0.0228,0.2801,1.1989,-9.7430,1.9364,7.1387,172.6007,0.0000,0.0000,0.0000,0.0000,0.0000,nothing
34932,-0.1979,0.0937,-0.0405,0.3304,1.2199,-9.7262,1.9358,7.1393,172.6003,0.0000,0.0000,0.0000,0.0000,0.0000,nothing
35048,-0.1932,0.0604,0.0410,0.2741,1.1792,-9.7268,1.9025,7.1164,172.6312,0.0000,0.0000,0.0000,0.0000,0.0000,nothing
35164,-0.1795,0.0491,0.0601,0.3526,1.2043,-9.7489,1.9178,7.1085,172.6348,0.0000,0.0000,0.0000,0.0000,0.0000,nothing
35280,-0.2004,0.0470,0.0498,0.3520,1.1912,-9.7274,1.9317,7.0954,172.6438,0.0000,0.0000,0.0000,0.0000,0.0000,nothing
35396,-0.1851,0.0901,-0.0623,0.2801,1.1947,-9.7358,1.9022,7.0852,172.6614,0.0000,0.0000,0.0000,0.0000,0.0000,nothing
35512,-0.2057,0.0609,-0.0060,0.3196,1.2115,-9.7513,1.8983,7.0845,172.6631,0.0000,0.0000,0.0000,0.0000,0.0000,nothing
35628,-0.1865,0.0470,0.0438,0.3352,1.2175,-9.7561,1.9037,7.0870,172.6593,0.0000,0.0000,0.0000,0.0000,0.0000,nothing
35744,-0.2037,0.0682,-0.0023,0.3394,1.2343,-9.7160,1.9118,7.1018,172.6428,0.0000,0.0000,0.0000,0.0000,0.0000,nothing
35860,-0.2281,0.0562,0.0454,0.3562,1.2432,-9.7238,1.9287,7.1197,172.6211,0.0000,0.0000,0.0000,0.0000,0.0000,nothing
35976,-0.2267,0.0693,-0.0187,0.3232,1.2331,-9.7292,1.9246,7.1296,172.6126,0.0000,0.0000,0.0000,0.0000,0.0000,nothing
36092,-0.2031,0.0491,0.0033,0.2712,1.1947,-9.7304,1.8906,7.1164,172.6342,0.0000,0.0000,0.0000,0.0000,0.0000,nothing
36208,-0.2185,0.0609,0.0105,0.3095,1.1936,-9.7579,1.8818,7.1018,172.6507,0.0000,0.0000,0.0000,0.0000,0.0000,nothing
36324,-0.1981,0.0601,0.0664,0.3089,1.1606,-9.7483,1.8738,7.0702,172.6832,0.0000,0.0000,0.0000,0.0000,0.0000,nothing
36440,-0.1779,0.0543,0.0417,0.3232,1.2259,-9.7453,1.8749,7.0798,172.6737,0.0000,0.0000,0.0000,0.0000,0.0000,nothing
36556,-0.1930,0.0705,0.0247,0.3274,1.2331,-9.7262,1.8787,7.0939,172.6591,0.0000,0.0000,0.0000,0.0000,0.0000,nothing
36672,-0.1917,0.0774,-0.0160,0.3556,1.2343,-9.6999,1.8990,7.1091,172.6391,0.0000,0.0000,0.0000,0.0000,0.0000,nothing
36788,-0.1855,0.0499,0.0269,0.2867,1.2031,-9.7364,1.8765,7.1024,172.6514,0.0000,0.0000,0.0000,0.0000,0.0000,nothing
36904,-0.1655,0.0559,0.0429,0.2993,1.1989,-9.7334,1.8637,7.0940,172.6628,0.0000,0.0000,0.0000,0.0000,0.0000,nothing
37020,-0.2195,0.0649,-0.0180,0.3166,1.2097,-9.7400,1.8621,7.0923,172.6649,0.0000,0.0000,0.0000,0.0000,0.0000,nothing
37136,-0.2125,0.0703,-0.0188,0.2652,1.2343,-9.7471,1.8304,7.1045,172.6612,0.0000,0.0000,0.0000,0.0000,0.0000,nothing
37252,-0.2082,0.0900,-0.0076,0.3436,1.1942,-9.7400,1.8479,7.0926,172.6682,0.0000,0.0000,0.0000,0.0000,0.0000,nothing
37368,-0.2173,0.0296,-0.0236,0.3178,1.2211,-9.7483,1.8484,7.0969,172.6639,0.0000,0.0000,0.0000,0.0000,0.0000,nothing
37484,-0.1944,0.0702,0.0326,0.2855,1.2432,-9.7184,1.8305,7.1159,172.6501,0.0000,0.0000,0.0000,0.0000,0.0000,nothing
37600,-0.2097,0.0759,0.0455,0.3669,1.2097,-9.7639,1.8612,7.1101,172.6479,0.0000,0.0000,0.0000,0.0000,0.0000,nothing
37716,-0.2292,0.0703,0.0117,0.2939,1.1977,-9.7651,1.8461,7.0980,172.6635,0.0000,0.0000,0.0000,0.0000,0.0000,nothing
37832,-0.2283,0.0694,0.0440,0.2718,1.1846,-9.7424,1.8201,7.0812,172.6863,0.0000,0.0000,0.0000,0.0000,0.0000,nothing
37948,-0.2181,0.0808,-0.0352,0.3304,1.1720,-9.7262,1.8313,7.0598,172.7042,0.0000,0.0000,0.0000,0.0000,0.0000,nothing
38064,-0.2232,0.0383,0.0499,0.3490,1.1714,-9.7639,1.8514,7.0375,172.7206,0.0000,0.0000,0.0000,0.0000,0.0000,nothing
38180,-0.1921,0.0447,0.0143,0.3801,1.1953,-9.7537,1.8878,7.0319,172.7166,0.0000,0.0000,0.0000,0.0000,0.0000,nothing
38296,-0.2318,0.0596,0.0142,0.2993,1.2546,-9.7453,1.8735,7.0620,172.6913,0.0000,0.0000,0.0000,0.0000,0.0000,nothing
38412,-0.2252,0.0705,0.0443,0.3196,1.2211,-9.7160,1.8731,7.0717,172.6820,0.0000,0.0000,0.0000,0.0000,0.0000,nothing
38528,-0.1819,0.0723,0.0161,0.3843,1.1858,-9.7489,1.9099,7.0575,172.6861,0.0000,0.0000,0.0000,0.0000,0.0000,nothing
38644,-0.1771,0.0678,-0.0045,0.3232,1.2169,-9.7657,1.9070,7.0617,172.6828,0.0000,0.0000,0.0000,0.0000,0.0000,nothing
38760,-0.1932,0.0530,-0.0189,0.3825,1.1157,-9.7603,1.9393,7.0071,172.7269,0.0000,0.0000,0.0000,0.0000,0.0000,nothing
38876,-0.1911,0.0494,-0.0219,0.0808,1.2355,-9.7100,1.7932,7.0316,172.7411,0.0000,0.0000,0.0000,0.0000,0.0000,nothing
38992,-0.2229,0.0799,0.0609,0.1838,0.9936,-9.7537,1.7214,6.9103,172.8765,0.0000,0.0000,0.0000,0.0000,0.0000,nothing
39108,-0.2018,0.0296,-0.0361,0.2670,1.2145,-9.7274,1.7052,6.9306,172.8607,0.0000,0.0000,0.0000,0.0000,0.0000,nothing
39224,-0.1951,0.0937,0.0057,0.3502,1.1744,-9.7555,1.7389,6.9236,172.8593,0.0000,0.0000,0.0000,0.0000,0.0000,nothing
39340,-0.2039,0.0798,-0.0468,0.2885,1.2319,-9.7418,1.7333,6.9516,172.8335,0.0000,0.0000,0.0000,0.0000,0.0000,nothing
39456,-0.1847,0.0416,0.0503,0.3585,1.1109,-9.7825,1.7686,6.9038,172.8711,0.0000,0.0000,0.0000,0.0000,0.0000,nothing
39572,-0.1498,0.0958,0.0150,0.3508,1.2325,-9.7250,1.7967,6.9352,172.8337,0.0000,0.0000,0.0000,0.0000,0.0000,nothing
39688,-0.1617,0.0603,0.0344,0.3651,1.1612,-9.7549,1.8299,6.9200,172.8398,0.0000,0.0000,0.0000,0.0000,0.0000,nothing
39804,-0.1749,0.0540,0.0462,0.3340,1.1534,-9.7328,1.8421,6.9035,172.8526,0.0000,0.0000,0.0000,0.0000,0.0000,nothing
39920,-0.1789,0.0630,-0.0226,0.2915,1.2013,-9.7298,1.8282,6.9167,172.8435,0.0000,0.0000,0.0000,0.0000,0.0000,nothing
40036,-0.2007,0.0555,0.0008,0.3160,1.1594,-9.7322,1.8301,6.9041,172.8552,0.0000,0.0000,0.0000,0.0000,0.0000,nothing
40152,-0.1453,0.0789,-0.0296,0.3340,1.2839,-9.6663,1.8432,6.9695,172.7886,0.0000,0.0000,0.0000,0.0000,0.0000,nothing
40268,-0.0864,0.2710,0.1385,0.5561,1.5174,-9.5855,1.9857,7.1691,172.5582,0.0000,0.0000,0.0000,0.0000,0.0000,nothing
40384,-0.1605,0.1175,0.0252,0.5196,1.0816,-9.7058,2.0914,7.0874,172.6074,0.0000,0.0000,0.0000,0.0000,0.0000,nothing
40500,-0.2699,0.0485,-0.0173,0.4064,1.1594,-9.8561,2.1171,7.0486,172.6373,0.0000,0.0000,0.0000,0.0000,0.0000,nothing
40616,-0.2709,0.0634,0.0678,0.1682,1.3097,-9.6939,2.0042,7.1130,172.6072,0.0000,0.0000,0.0000,0.0000,0.0000,nothing
40732,-0.2185,0.0998,0.0145,0.3723,1.2097,-9.7286,2.0213,7.1100,172.6054,0.0000,0.0000,0.0000,0.0000,0.0000,nothing
40848,-0.1910,0.0523,0.0363,0.2933,1.1642,-9.7735,1.9898,7.0779,172.6450,0.0000,0.0000,0.0000,0.0000,0.0000,nothing
40964,-0.2248,0.0533,-0.0315,0.3562,1.2444,-9.7932,1.9974,7.0939,172.6275,0.0000,0.0000,0.0000,0.0000,0.0000,nothing
41080,-0.2551,0.1016,0.0116,0.2215,1.3492,-9.7280,1.9269,7.1740,172.5691,0.0000,0.0000,0.0000,0.0000,0.0000,nothing
41196,-0.2026,0.1088,0.0183,0.3675,1.2552,-9.6675,1.9500,7.1957,172.5421,0.0000,0.0000,0.0000,0.0000,0.0000,nothing
41312,-0.2776,0.0937,-0.0252,0.2400,1.3935,-9.6250,1.8968,7.2989,172.4561,0.0000,0.0000,0.0000,0.0000,0.0000,nothing
41428,-0.0379,0.0915,-0.0121,0.5142,1.1780,-9.5514,2.0111,7.2716,172.4525,0.0000,0.0000,0.0000,0.0000,0.0000,nothing
41544,-0.2097,0.0687,-0.0553,0.4244,1.0547,-9.8513,2.0559,7.1536,172.5538,0.0000,0.0000,0.0000,0.0000,0.0000,nothing
41660,-0.2271,0.0179,-0.0055,0.3083,1.1780,-9.7699,2.0296,7.1253,172.5883,0.0000,0.0000,0.0000,0.0000,0.0000,nothing
41776,-0.1996,0.0638,0.0326,0.1963,1.2618,-9.6687,1.9424,7.1561,172.5823,0.0000,0.0000,0.0000,0.0000,0.0000,nothing
41892,-0.1712,0.0787,0.0150,0.4908,1.1265,-9.6951,2.0358,7.1026,172.6085,0.0000,0.0000,0.0000,0.0000,0.0000,nothing
42008,-0.1948,0.0656,-0.0139,0.3472,1.2049,-9.7609,2.0344,7.0956,172.6156,0.0000,0.0000,0.0000,0.0000,0.0000,nothing
42124,-0.1940,0.0545,0.0453,0.2299,1.2307,-9.7418,1.9649,7.1059,172.6247,0.0000,0.0000,0.0000,0.0000,0.0000,nothing
42240,-0.2114,0.0639,-0.0053,0.3741,1.1445,-9.7777,1.9862,7.0623,172.6610,0.0000,0.0000,0.0000,0.0000,0.0000,nothing
42356,-0.1667,0.0380,0.0249,0.2622,1.1995,-9.7364,1.9406,7.0582,172.6773,0.0000,0.0000,0.0000,0.0000,0.0000,nothing
42472,-0.2039,0.0570,0.0338,0.2735,1.1912,-9.7771,1.9055,7.0467,172.6977,0.0000,0.0000,0.0000,0.0000,0.0000,nothing
42588,-0.2308,0.0716,0.0221,0.4322,1.2001,-9.7597,1.9668,7.0424,172.6855,0.0000,0.0000,0.0000,0.0000,0.0000,nothing
42704,-0.2225,0.0864,0.0277,0.3131,1.2594,-9.7567,1.9523,7.0734,172.6595,0.0000,0.0000,0.0000,0.0000,0.0000,nothing
42820,-0.2263,0.0836,0.0627,0.1443,1.2582,-9.7352,1.8413,7.1025,172.6603,0.0000,0.0000,0.0000,0.0000,0.0000,nothing
42936,-0.2571,0.0796,0.0094,0.4310,1.1229,-9.7501,1.9087,7.0486,172.6950,0.0000,0.0000,0.0000,0.0000,0.0000,nothing
43052,-0.2564,0.0383,0.0119,0.0748,1.6419,-9.7813,1.7598,7.2990,172.4896,0.0000,0.0000,0.0000,0.0000,0.0000,nothing
43168,-0.3884,0.1335,-0.0011,0.1455,1.2193,-9.7052,1.6694,7.2852,172.5239,0.0000,0.0000,0.0000,0.0000,0.0000,nothing
43284,-0.2187,0.0815,0.0172,0.3891,1.1121,-9.7723,1.7291,7.2054,172.5879,0.0000,0.0000,0.0000,0.0000,0.0000,nothing
43400,-0.2173,0.0788,0.0016,0.3214,1.1415,-9.7753,1.7433,7.1504,172.6380,0.0000,0.0000,0.0000,0.0000,0.0000,nothing
43516,-0.1883,0.0429,-0.0404,0.3202,1.2067,-9.7388,1.7559,7.1413,172.6438,0.0000,0.0000,0.0000,0.0000,0.0000,nothing
43632,-0.1986,0.0733,0.0551,0.3262,1.2229,-9.7537,1.7704,7.1414,172.6402,0.0000,0.0000,0.0000,0.0000,0.0000,nothing
43748,-0.1560,0.0453,-0.0016,0.3448,1.1499,-9.7513,1.7944,7.0994,172.6751,0.0000,0.0000,0.0000,0.0000,0.0000,nothing
43864,-0.1648,0.0454,-0.0135,0.2855,1.2169,-9.7447,1.7815,7.1010,172.6767,0.0000,0.0000,0.0000,0.0000,0.0000,nothing
43980,-0.1899,0.0526,-0.0040,0.3280,1.2372,-9.7705,1.7942,7.1122,172.6627,0.0000,0.0000,0.0000,0.0000,0.0000,nothing
44096,-0.2004,0.0334,0.0485,0.3071,1.2235,-9.7609,1.7935,7.1151,172.6601,0.0000,0.0000,0.0000,0.0000,0.0000,nothing
44212,-0.1847,0.0552,0.0338,0.3514,1.2103,-9.7693,1.8187,7.1094,172.6594,0.0000,0.0000,0.0000,0.0000,0.0000,nothing
44328,-0.1835,0.0465,-0.0710,0.2634,1.2444,-9.7412,1.7904,7.1262,172.6501,0.0000,0.0000,0.0000,0.0000,0.0000,nothing
44444,-0.2173,0.0699,-0.0300,0.3376,1.1564,-9.7483,1.8083,7.0897,172.6810,0.0000,0.0000,0.0000,0.0000,0.0000,nothing
44560,-0.1400,0.0630,-0.0143,0.3184,1.2055,-9.7573,1.8130,7.0847,172.6847,0.0000,0.0000,0.0000,0.0000,0.0000,nothing
44676,-0.2259,0.0365,-0.0387,0.3268,1.2462,-9.7304,1.8225,7.1056,172.6620,0.0000,0.0000,0.0000,0.0000,0.0000,nothing
44792,-0.2179,0.0394,0.0019,0.3089,1.3719,-9.7430,1.8201,7.1963,172.5747,0.0000,0.0000,0.0000,0.0000,0.0000,nothing
44908,-0.2053,0.0671,-0.0019,0.3262,1.2480,-9.7531,1.8281,7.2055,172.5638,0.0000,0.0000,0.0000,0.0000,0.0000,nothing
45024,-0.2109,0.0743,0.0796,0.3047,1.2109,-9.7866,1.8222,7.1899,172.5804,0.0000,0.0000,0.0000,0.0000,0.0000,nothing
45140,-0.2297,0.0753,0.0221,0.2933,1.1726,-9.7364,1.8114,7.1574,172.6146,0.0000,0.0000,0.0000,0.0000,0.0000,nothing
45256,-0.1925,0.0494,-0.0349,0.3400,1.1708,-9.7400,1.8287,7.1267,172.6400,0.0000,0.0000,0.0000,0.0000,0.0000,nothing
45372,-0.1913,0.0594,-0.0014,0.2849,1.2241,-9.7370,1.8121,7.1303,172.6407,0.0000,0.0000,0.0000,0.0000,0.0000,nothing
45488,-0.1550,0.0870,0.0466,0.3011,1.2145,-9.7100,1.8072,7.1299,172.6424,0.0000,0.0000,0.0000,0.0000,0.0000,nothing
45604,-0.2045,0.0680,-0.0232,0.2981,1.1947,-9.7382,1.8005,7.1160,172.6575,0.0000,0.0000,0.0000,0.0000,0.0000,nothing
45720,-0.2428,0.0316,0.0322,0.3526,1.2570,-9.6837,1.8271,7.1434,172.6243,0.0000,0.0000,0.0000,0.0000,0.0000,nothing
45836,-0.1930,0.0489,-0.0274,0.2622,1.2187,-9.7471,1.7972,7.1415,172.6335,0.0000,0.0000,0.0000,0.0000,0.0000,nothing
45952,-0.2113,0.0515,-0.0279,0.2807,1.1858,-9.7483,1.7813,7.1206,172.6578,0.0000,0.0000,0.0000,0.0000,0.0000,nothing
46068,-0.2177,0.0672,-0.0108,0.3178,1.2151,-9.7729,1.7880,7.1169,172.6597,0.0000,0.0000,0.0000,0.0000,0.0000,nothing
46184,-0.2360,0.0832,0.0386,0.2580,1.2133,-9.7286,1.7600,7.1159,172.6675,0.0000,0.0000,0.0000,0.0000,0.0000,nothing
46300,-0.1928,0.0499,-0.0296,0.3196,1.1888,-9.7184,1.7709,7.1013,172.6790,0.0000,0.0000,0.0000,0.0000,0.0000,nothing
46416,-0.1924,0.0409,0.0780,0.3316,1.1900,-9.7591,1.7871,7.0860,172.6899,0.0000,0.0000,0.0000,0.0000,0.0000,nothing
46532,-0.1564,0.0438,-0.0915,0.3322,1.1918,-9.7412,1.8022,7.0745,172.6973,0.0000,0.0000,0.0000,0.0000,0.0000,nothing
46648,-0.1707,0.0594,0.0994,0.3550,1.2163,-9.7400,1.8291,7.0784,172.6868,0.0000,0.0000,0.0000,0.0000,0.0000,nothing
46764,-0.1778,0.0598,0.0091,0.3023,1.2223,-9.6741,1.8238,7.0902,172.6767,0.0000,0.0000,0.0000,0.0000,0.0000,nothing
46880,-0.1984,0.0762,0.0973,0.3059,1.2756,-9.7106,1.8203,7.1291,172.6398,0.0000,0.0000,0.0000,0.0000,0.0000,nothing
46996,-0.2064,0.0750,0.0116,0.3059,1.2091,-9.7465,1.8166,7.1230,172.6467,0.0000,0.0000,0.0000,0.0000,0.0000,nothing
47112,-0.1914,0.0773,-0.0348,0.2987,1.1822,-9.7789,1.8086,7.0996,172.6713,0.0000,0.0000,0.0000,0.0000,0.0000,nothing
47228,-0.1853,0.0642,0.0292,0.3071,1.1864,-9.7196,1.8074,7.0852,172.6856,0.0000,0.0000,0.0000,0.0000,0.0000,nothing
47344,-0.1932,0.0743,-0.0015,0.4585,1.2205,-9.7232,1.8945,7.0915,172.6573,0.0000,0.0000,0.0000,0.0000,0.0000,nothing
47460,-0.2239,0.0765,0.0041,0.4465,1.2199,-9.6927,1.9665,7.0989,172.6310,0.0000,0.0000,0.0000,0.0000,0.0000,nothing
47576,-0.1840,0.0541,0.0466,0.3526,1.1888,-9.7304,1.9758,7.0851,172.6418,0.0000,0.0000,0.0000,0.0000,0.0000,nothing
47692,-0.2048,0.0739,-0.0432,0.2358,1.2492,-9.7442,1.9157,7.1070,172.6367,0.0000,0.0000,0.0000,0.0000,0.0000,nothing
47808,-0.2307,0.0735,0.0904,0.3011,1.2307,-9.7388,1.8998,7.1162,172.6320,0.0000,0.0000,0.0000,0.0000,0.0000,nothing
47924,-0.2203,0.0604,-0.0654,0.3789,1.2217,-9.7579,1.9305,7.1177,172.6225,0.0000,0.0000,0.0000,0.0000,0.0000,nothing
48040,-0.1932,0.0323,0.0297,0.3131,1.1654,-9.7567,1.9200,7.0867,172.6553,0.0000,0.0000,0.0000,0.0000,0.0000,nothing
48156,-0.1936,0.0552,-0.0005,0.3017,1.1816,-9.6963,1.9049,7.0725,172.6729,0.0000,0.0000,0.0000,0.0000,0.0000,nothing
48272,-0.1673,0.0653,-0.0075,0.3556,1.2259,-9.7741,1.9212,7.0797,172.6617,0.0000,0.0000,0.0000,0.0000,0.0000,nothing
48388,-0.1993,0.0634,0.0211,0.2891,1.2253,-9.7118,1.8983,7.0905,172.6573,0.0000,0.0000,0.0000,0.0000,0.0000,nothing
48504,-0.2308,0.0394,-0.0349,0.3065,1.2085,-9.7735,1.8867,7.0860,172.6647,0.0000,0.0000,0.0000,0.0000,0.0000,nothing
48620,-0.2312,0.0544,0.0314,0.3986,1.1918,-9.7316,1.9308,7.0750,172.6637,0.0000,0.0000,0.0000,0.0000,0.0000,nothing
48736,-0.2052,0.0484,0.0390,0.2598,1.2229,-9.7280,1.8896,7.0837,172.6661,0.0000,0.0000,0.0000,0.0000,0.0000,nothing
48852,-0.1909,0.0784,-0.0676,0.3196,1.2510,-9.7645,1.8866,7.1051,172.6462,0.0000,0.0000,0.0000,0.0000,0.0000,nothing
48968,-0.1718,0.0954,0.0592,0.3526,1.2384,-9.7609,1.9032,7.1173,172.6301,0.0000,0.0000,0.0000,0.0000,0.0000,nothing
49084,-0.2237,0.0780,-0.0732,0.2879,1.2803,-9.7896,1.8798,7.1505,172.6040,0.0000,0.0000,0.0000,0.0000,0.0000,nothing
49200,-0.1967,0.0879,0.0917,0.3340,1.1708,-9.7525,1.8866,7.1196,172.6321,0.0000,0.0000,0.0000,0.0000,0.0000,nothing
49316,-0.2057,0.0359,-0.0033,0.3035,1.1319,-9.7202,1.8756,7.0717,172.6813,0.0000,0.0000,0.0000,0.0000,0.0000,nothing
49432,-0.2173,0.0488,0.0139,0.2670,1.1355,-9.7453,1.8439,7.0290,172.7309,0.0000,0.0000,0.0000,0.0000,0.0000,nothing
49548,-0.1776,0.0483,0.0468,0.2867,1.1505,-9.7382,1.8270,6.9996,172.7636,0.0000,0.0000,0.0000,0.0000,0.0000,nothing
49664,-0.1763,0.0519,0.0259,0.3340,1.2247,-9.7471,1.8391,7.0153,172.7453,0.0000,0.0000,0.0000,0.0000,0.0000,nothing
49780,-0.1690,0.0615,0.0134,0.3514,1.2343,-9.7501,1.8599,7.0348,172.7210,0.0000,0.0000,0.0000,0.0000,0.0000,nothing
49896,-0.2183,0.0633,0.0319,0.3621,1.2097,-9.7489,1.8851,7.0382,172.7112,0.0000,0.0000,0.0000,0.0000,0.0000,nothing
50012,-0.2268,0.0695,0.0027,0.2885,1.2241,-9.7412,1.8649,7.0503,172.7048,0.0000,0.0000,0.0000,0.0000,0.0000,nothing
50128,-0.2127,0.0545,0.0055,0.3316,1.2205,-9.7639,1.8714,7.0574,172.6963,0.0000,0.0000,0.0000,0.0000,0.0000,nothing
50244,-0.2072,0.0628,-0.0098,0.3280,1.2019,-9.7507,1.8755,7.0540,172.6985,0.0000,0.0000,0.0000,0.0000,0.0000,nothing
50360,-0.1849,0.0585,-0.0305,0.3310,1.1882,-9.7232,1.8815,7.0449,172.7057,0.0000,0.0000,0.0000,0.0000,0.0000,nothing
50476,-0.1783,0.0714,-0.0408,0.3508,1.2235,-9.7232,1.8983,7.0571,172.6895,0.0000,0.0000,0.0000,0.0000,0.0000,nothing
50592,-0.2123,0.0577,0.0140,0.2718,1.2331,-9.7208,1.8674,7.0740,172.6812,0.0000,0.0000,0.0000,0.0000,0.0000,nothing
50708,-0.2158,0.0725,0.0115,0.3831,1.1995,-9.7136,1.9047,7.0701,172.6753,0.0000,0.0000,0.0000,0.0000,0.0000,nothing
50824,-0.2035,0.0547,0.0354,0.2825,1.2462,-9.7495,1.8788,7.0912,172.6616,0.0000,0.0000,0.0000,0.0000,0.0000,nothing
50940,-0.2492,0.0538,-0.0145,0.3172,1.2372,-9.7070,1.8767,7.1081,172.6459,0.0000,0.0000,0.0000,0.0000,0.0000,nothing
51056,-0.2447,0.0849,0.0618,0.3436,1.2091,-9.7513,1.8893,7.1036,172.6469,0.0000,0.0000,0.0000,0.0000,0.0000,nothing
51172,-0.2200,0.0664,0.0800,0.2580,1.1517,-9.7447,1.8510,7.0671,172.6922,0.0000,0.0000,0.0000,0.0000,0.0000,nothing
51288,-0.1603,0.0675,-0.0571,0.3496,1.1636,-9.7154,1.8704,7.0430,172.7105,0.0000,0.0000,0.0000,0.0000,0.0000,nothing
51404,-0.1861,0.0654,0.0776,0.3562,1.0768,-9.7884,1.8906,6.9658,172.7798,0.0000,0.0000,0.0000,0.0000,0.0000,nothing
51520,-0.2120,0.0376,-0.0244,0.3089,1.0804,-9.7418,1.8820,6.9018,172.8438,0.0000,0.0000,0.0000,0.0000,0.0000,nothing
51636,-0.2273,0.0537,0.0417,0.2849,1.2462,-9.7561,1.8597,6.9394,172.8134,0.0000,0.0000,0.0000,0.0000,0.0000,nothing
51752,-0.2454,0.0702,0.0849,0.3567,1.2091,-9.7166,1.8824,6.9543,172.7930,0.0000,0.0000,0.0000,0.0000,0.0000,nothing
51868,-0.2060,0.0691,-0.0603,0.2867,1.2091,-9.7597,1.8611,6.9648,172.7885,0.0000,0.0000,0.0000,0.0000,0.0000,nothing
51984,-0.1887,0.0736,-0.0007,0.3567,1.1953,-9.7388,1.8832,6.9676,172.7800,0.0000,0.0000,0.0000,0.0000,0.0000,nothing
52100,-0.2114,0.0769,-0.0034,0.2975,1.2396,-9.7501,1.8682,6.9951,172.7573,0.0000,0.0000,0.0000,0.0000,0.0000,nothing
52216,-0.1925,0.0646,-0.0593,0.3376,1.2247,-9.7118,1.8789,7.0138,172.7364,0.0000,0.0000,0.0000,0.0000,0.0000,nothing
52332,-0.1958,0.0713,-0.0049,0.2783,1.2372,-9.7322,1.8535,7.0367,172.7209,0.0000,0.0000,0.0000,0.0000,0.0000,nothing
52448,-0.2161,0.0521,0.0125,0.3166,1.2169,-9.7202,1.8533,7.0462,172.7117,0.0000,0.0000,0.0000,0.0000,0.0000,nothing
52564,-0.1969,0.0492,0.0211,0.3083,1.2259,-9.7388,1.8479,7.0587,172.7011,0.0000,0.0000,0.0000,0.0000,0.0000,nothing
52680,-0.2169,0.0660,0.0119,0.3304,1.2211,-9.7400,1.8559,7.0670,172.6910,0.0000,0.0000,0.0000,0.0000,0.0000,nothing
52796,-0.1832,0.0953,-0.0841,0.3107,1.1977,-9.7495,1.8514,7.0603,172.6986,0.0000,0.0000,0.0000,0.0000,0.0000,nothing
52912,-0.2162,0.0440,0.0601,0.3113,1.2307,-9.7459,1.8478,7.0736,172.6866,0.0000,0.0000,0.0000,0.0000,0.0000,nothing
53028,-0.2072,0.0455,-0.0932,0.3448,1.2079,-9.7513,1.8640,7.0720,172.6841,0.0000,0.0000,0.0000,0.0000,0.0000,nothing
53144,-0.2061,0.0374,0.0361,0.2741,1.1900,-9.7346,1.8377,7.0614,172.7010,0.0000,0.0000,0.0000,0.0000,0.0000,nothing
53260,-0.1951,0.0658,-0.0243,0.3526,1.2235,-9.7711,1.8591,7.0686,172.6886,0.0000,0.0000,0.0000,0.0000,0.0000,nothing
53376,-0.2151,0.0582,0.0494,0.2634,1.2217,-9.7406,1.8268,7.0763,172.6893,0.0000,0.0000,0.0000,0.0000,0.0000,nothing
53492,-0.2418,0.0678,-0.0168,0.3669,1.2331,-9.7328,1.8583,7.0903,172.6678,0.0000,0.0000,0.0000,0.0000,0.0000,nothing
53608,-0.2288,0.0688,0.0184,0.3334,1.2426,-9.7358,1.8671,7.1082,172.6483,0.0000,0.0000,0.0000,0.0000,0.0000,nothing
53724,-0.2214,0.0612,0.0285,0.3005,1.2271,-9.7621,1.8553,7.1135,172.6462,0.0000,0.0000,0.0000,0.0000,0.0000,nothing
53840,-0.2112,0.0628,-0.0183,0.3328,1.2037,-9.7597,1.8636,7.1048,172.6524,0.0000,0.0000,0.0000,0.0000,0.0000,nothing
53956,-0.2189,0.0661,0.0556,0.2963,1.2235,-9.7376,1.8502,7.1101,172.6507,0.0000,0.0000,0.0000,0.0000,0.0000,nothing
54072,-0.1690,0.0686,0.0195,0.2269,1.1918,-9.7759,1.7970,7.0940,172.6797,0.0000,0.0000,0.0000,0.0000,0.0000,nothing
54188,-0.1899,0.0368,0.0523,0.3107,1.2390,-9.7501,1.7983,7.1085,172.6653,0.0000,0.0000,0.0000,0.0000,0.0000,nothing
54304,-0.2338,0.0698,-0.0109,0.3609,1.2055,-9.7483,1.8289,7.1021,172.6638,0.0000,0.0000,0.0000,0.0000,0.0000,nothing
54420,-0.2134,0.0699,-0.0428,0.2466,1.2235,-9.7729,1.7894,7.1053,172.6706,0.0000,0.0000,0.0000,0.0000,0.0000,nothing
54536,-0.2034,0.0802,-0.0101,0.3550,1.2313,-9.7489,1.8173,7.1141,172.6551,0.0000,0.0000,0.0000,0.0000,0.0000,nothing
54652,-0.2041,0.0476,0.0154,0.3113,1.2241,-9.7573,1.8169,7.1174,172.6520,0.0000,0.0000,0.0000,0.0000,0.0000,nothing
54768,-0.2079,0.0698,0.0045,0.2634,1.3695,-9.7465,1.7885,7.2053,172.5737,0.0000,0.0000,0.0000,0.0000,0.0000,nothing
54884,-0.1924,0.0802,0.0003,0.3687,1.2235,-9.7471,1.8246,7.1998,172.5703,0.0000,0.0000,0.0000,0.0000,0.0000,nothing
55000,-0.2431,0.0789,-0.0404,0.3789,1.2151,-9.7250,1.8634,7.1915,172.5686,0.0000,0.0000,0.0000,0.0000,0.0000,nothing
55116,-0.2121,0.0725,-0.0117,0.2340,1.1846,-9.7256,1.8141,7.1667,172.6050,0.0000,0.0000,0.0000,0.0000,0.0000,nothing
55232,-0.2012,0.0747,0.0534,0.3717,1.1965,-9.7878,1.8487,7.1464,172.6159,0.0000,0.0000,0.0000,0.0000,0.0000,nothing
55348,-0.1870,0.0646,-0.0225,0.3340,1.2073,-9.7729,1.8581,7.1356,172.6240,0.0000,0.0000,0.0000,0.0000,0.0000,nothing
55464,-0.2134,0.0736,-0.0348,0.2849,1.2307,-9.7190,1.8389,7.1434,172.6213,0.0000,0.0000,0.0000,0.0000,0.0000,nothing
55580,-0.1779,0.0616,0.0654,0.3143,1.2055,-9.7489,1.8383,7.1336,172.6310,0.0000,0.0000,0.0000,0.0000,0.0000,nothing
55696,-0.1666,0.0845,-0.0417,0.3220,1.2139,-9.7430,1.8423,7.1301,172.6334,0.0000,0.0000,0.0000,0.0000,0.0000,nothing
55812,-0.2004,0.0623,0.0117,0.3328,1.2456,-9.7735,1.8515,7.1430,172.6185,0.0000,0.0000,0.0000,0.0000,0.0000,nothing
55928,-0.2016,0.0652,-0.0528,0.2837,1.2666,-9.7729,1.8313,7.1669,172.6005,0.0000,0.0000,0.0000,0.0000,0.0000,nothing
56044,-0.2239,0.0622,0.0101,0.3059,1.2474,-9.7412,1.8265,7.1796,172.5893,0.0000,0.0000,0.0000,0.0000,0.0000,nothing
56160,-0.2202,0.0593,-0.0181,0.3538,1.2414,-9.7681,1.8497,7.1855,172.5779,0.0000,0.0000,0.0000,0.0000,0.0000,nothing
56276,-0.1947,0.0693,-0.0004,0.3035,1.1804,-9.7424,1.8418,7.1575,172.6069,0.0000,0.0000,0.0000,0.0000,0.0000,nothing
56392,-0.2106,0.0738,0.0113,0.2688,1.2815,-9.7507,1.8142,7.1902,172.5821,0.0000,0.0000,0.0000,0.0000,0.0000,nothing
56508,-0.2102,0.0923,0.0320,0.3448,1.2019,-9.7250,1.8342,7.1753,172.5915,0.0000,0.0000,0.0000,0.0000,0.0000,nothing
56624,-0.2099,0.0553,0.0120,0.2628,1.1965,-9.7400,1.8042,7.1580,172.6158,0.0000,0.0000,0.0000,0.0000,0.0000,nothing
56740,-0.2116,0.0690,0.0183,0.3418,1.2097,-9.7088,1.8238,7.1520,172.6168,0.0000,0.0000,0.0000,0.0000,0.0000,nothing
56856,-0.2113,0.0837,0.0270,0.3735,1.2289,-9.7178,1.8597,7.1570,172.6029,0.0000,0.0000,0.0000,0.0000,0.0000,nothing
56972,-0.2277,0.0762,0.0382,0.3029,1.1965,-9.7561,1.8502,7.1401,172.6216,0.0000,0.0000,0.0000,0.0000,0.0000,nothing
57088,-0.1977,0.0544,0.0090,0.2837,1.2061,-9.7262,1.8311,7.1328,172.6336,0.0000,0.0000,0.0000,0.0000,0.0000,nothing
57204,-0.2003,0.0864,0.0015,0.3843,1.1786,-9.7597,1.8719,7.1075,172.6477,0.0000,0.0000,0.0000,0.0000,0.0000,nothing
57320,-0.2140,0.0761,-0.0405,0.2927,1.2337,-9.7364,1.8555,7.1185,172.6412,0.0000,0.0000,0.0000,0.0000,0.0000,nothing
57436,-0.2034,0.0495,0.0457,0.3071,1.2205,-9.7615,1.8488,7.1190,172.6424,0.0000,0.0000,0.0000,0.0000,0.0000,nothing
57552,-0.1941,0.0473,-0.0414,0.3466,1.1870,-9.7166,1.8666,7.1032,172.6532,0.0000,0.0000,0.0000,0.0000,0.0000,nothing
57668,-0.2022,0.1047,0.0474,0.4453,1.2271,-9.7436,1.9396,7.1100,172.6275,0.0000,0.0000,0.0000,0.0000,0.0000,nothing
57784,-0.2022,0.0511,-0.0046,0.3538,1.2552,-9.7340,1.9521,7.1333,172.6017,0.0000,0.0000,0.0000,0.0000,0.0000,nothing
57900,-0.2180,0.0852,0.0289,0.3196,1.2229,-9.7334,1.9435,7.1357,172.6017,0.0000,0.0000,0.0000,0.0000,0.0000,nothing
58016,-0.2014,0.0367,0.0384,0.3508,1.2151,-9.7849,1.9529,7.1295,172.6052,0.0000,0.0000,0.0000,0.0000,0.0000,nothing
58132,-0.1944,0.0653,-0.0294,0.2095,1.2516,-9.7046,1.8806,7.1513,172.6031,0.0000,0.0000,0.0000,0.0000,0.0000,nothing
58248,-0.2060,0.0611,0.0285,0.3412,1.1995,-9.7591,1.8913,7.1364,172.6147,0.0000,0.0000,0.0000,0.0000,0.0000,nothing
58364,-0.1958,0.0534,-0.0101,0.3460,1.2055,-9.7477,1.9039,7.1273,172.6202,0.0000,0.0000,0.0000,0.0000,0.0000,nothing
58480,-0.2256,0.0555,0.0230,0.3364,1.2055,-9.7783,1.9091,7.1170,172.6288,0.0000,0.0000,0.0000,0.0000,0.0000,nothing
58596,-0.2159,0.0819,0.0207,0.2179,1.2061,-9.7310,1.8456,7.1117,172.6503,0.0000,0.0000,0.0000,0.0000,0.0000,nothing
58712,-0.2011,0.0694,0.0225,0.3645,1.2271,-9.7621,1.8732,7.1165,172.6386,0.0000,0.0000,0.0000,0.0000,0.0000,nothing
58828,-0.1755,0.0590,0.0383,0.2837,1.1942,-9.7334,1.8517,7.1040,172.6562,0.0000,0.0000,0.0000,0.0000,0.0000,nothing
58944,-0.1809,0.0836,0.0041,0.3400,1.2414,-9.7513,1.8646,7.1187,172.6387,0.0000,0.0000,0.0000,0.0000,0.0000,nothing
59060,-0.2056,0.0545,0.0221,0.3137,1.2510,-9.7340,1.8612,7.1388,172.6201,0.0000,0.0000,0.0000,0.0000,0.0000,nothing
59176,-0.2014,0.0728,-0.0264,0.3544,1.2187,-9.7382,1.8819,7.1378,172.6158,0.0000,0.0000,0.0000,0.0000,0.0000,nothing
59292,-0.1933,0.0658,0.0342,0.3041,1.2103,-9.7765,1.8704,7.1294,172.6269,0.0000,0.0000,0.0000,0.0000,0.0000,nothing
59408,-0.2087,0.0718,0.0055,0.2837,1.2235,-9.7094,1.8495,7.1343,172.6274,0.0000,0.0000,0.0000,0.0000,0.0000,nothing
59524,-0.2102,0.0465,-0.0020,0.3741,1.2151,-9.7220,1.8832,7.1328,172.6203,0.0000,0.0000,0.0000,0.0000,0.0000,nothing
59640,-0.2439,0.0626,-0.0108,0.3334,1.2055,-9.7459,1.8893,7.1243,172.6270,0.0000,0.0000,0.0000,0.0000,0.0000,nothing
59756,-0.1919,0.1024,-0.0072,0.3370,1.2319,-9.7328,1.8971,7.1327,172.6167,0.0000,0.0000,0.0000,0.0000,0.0000,nothing
59872,-0.1794,0.0724,0.0179,0.3556,1.1714,-9.7316,1.9151,7.1054,172.6384,0.0000,0.0000,0.0000,0.0000,0.0000,nothing
59988,-0.1947,0.0609,0.0292,0.2999,1.1810,-9.7567,1.8984,7.0847,172.6628,0.0000,0.0000,0.0000,0.0000,0.0000,nothing
60104,-0.2018,0.0727,-0.0174,0.2987,1.2187,-9.7436,1.8828,7.0888,172.6629,0.0000,0.0000,0.0000,0.0000,0.0000,nothing
60220,-0.2035,0.0466,0.0269,0.3352,1.1906,-9.7669,1.8896,7.0745,172.6750,0.0000,0.0000,0.0000,0.0000,0.0000,nothing
60336,-0.1985,0.0553,-0.0083,0.3143,1.1714,-9.7094,1.8847,7.0547,172.6954,0.0000,0.0000,0.0000,0.0000,0.0000,nothing
60452,-0.1947,0.0815,-0.0091,0.2987,1.1804,-9.7250,1.8709,7.0410,172.7122,0.0000,0.0000,0.0000,0.0000,0.0000,nothing
60568,-0.1812,0.0657,-0.0119,0.3562,1.1912,-9.7280,1.8919,7.0345,172.7130,0.0000,0.0000,0.0000,0.0000,0.0000,nothing
60684,-0.1749,0.0639,0.0318,0.3005,1.2139,-9.7424,1.8780,7.0410,172.7104,0.0000,0.0000,0.0000,0.0000,0.0000,nothing
60800,-0.1647,0.0548,-0.1366,0.2927,1.2127,-9.7280,1.8613,7.0472,172.7088,0.0000,0.0000,0.0000,0.0000,0.0000,nothing
60916,-0.1978,0.0510,0.0566,0.3388,1.2031,-9.7400,1.8729,7.0462,172.7067,0.0000,0.0000,0.0000,0.0000,0.0000,nothing
61032,-0.2059,0.0401,0.0323,0.3573,1.2217,-9.7723,1.8934,7.0537,172.6940,0.0000,0.0000,0.0000,0.0000,0.0000,nothing
61148,-0.2018,0.0568,-0.0219,0.2538,1.2666,-9.7040,1.8528,7.0916,172.6679,0.0000,0.0000,0.0000,0.0000,0.0000,nothing
61264,-0.2217,0.0664,0.0544,0.3436,1.2307,-9.7256,1.8682,7.1032,172.6528,0.0000,0.0000,0.0000,0.0000,0.0000,nothing
61380,-0.2222,0.0698,0.0101,0.3131,1.2217,-9.7238,1.8644,7.1086,172.6485,0.0000,0.0000,0.0000,0.0000,0.0000,nothing
61496,-0.1711,0.0341,0.0558,0.2676,1.0780,-9.7412,1.8343,7.0291,172.7331,0.0000,0.0000,0.0000,0.0000,0.0000,nothing
61612,-0.1962,0.0585,0.0091,0.3621,1.3677,-9.7453,1.8618,7.1249,172.6335,0.0000,0.0000,0.0000,0.0000,0.0000,nothing
61728,-0.1986,0.0575,-0.0563,0.4112,1.2337,-9.7705,1.9149,7.1314,172.6134,0.0000,0.0000,0.0000,0.0000,0.0000,nothing
61844,-0.2026,0.0769,0.0470,0.1874,1.2307,-9.7328,1.8329,7.1389,172.6272,0.0000,0.0000,0.0000,0.0000,0.0000,nothing
61960,-0.1948,0.0623,-0.0619,0.3891,1.2001,-9.7531,1.8764,7.1259,172.6287,0.0000,0.0000,0.0000,0.0000,0.0000,nothing
62076,-0.1853,0.0578,0.0204,0.2628,1.2307,-9.7531,1.8418,7.1323,172.6313,0.0000,0.0000,0.0000,0.0000,0.0000,nothing
62192,-0.1763,0.0650,0.0406,0.2712,1.1989,-9.7442,1.8159,7.1202,172.6495,0.0000,0.0000,0.0000,0.0000,0.0000,nothing
62308,-0.3576,0.1052,-0.0278,0.2634,1.2157,-9.7825,1.7872,7.1164,172.6604,0.0000,0.0000,0.0000,0.0000,0.0000,หนึ่ง
62424,-0.1704,0.0221,0.0255,0.1580,1.1864,-9.7693,1.7004,7.0971,172.7000,0.0000,0.0000,0.0000,0.0000,0.0000,หนึ่ง
62540,-0.1341,0.1042,0.0041,0.3807,1.3019,-9.7226,1.7525,7.1494,172.6367,0.0000,0.0000,0.0000,0.0000,0.0000,หนึ่ง
62656,-0.1986,0.0573,0.0329,0.3065,1.2157,-9.7549,1.7558,7.1445,172.6407,0.0000,0.0000,0.0000,0.0000,0.0000,หนึ่ง
62772,-0.2187,0.0793,0.0278,0.2897,1.2390,-9.7442,1.7492,7.1544,172.6327,0.0000,0.0000,0.0000,0.0000,0.0000,หนึ่ง
62888,-0.2038,0.0772,0.0211,0.3340,1.1936,-9.7178,1.7696,7.1388,172.6429,0.0000,0.0000,0.0000,0.0000,0.0000,หนึ่ง
63004,-0.1978,0.0870,0.0110,0.3196,1.2552,-9.7328,1.7792,7.1594,172.6206,0.0000,0.0000,0.0000,0.0000,0.0000,หนึ่ง
63120,-0.2432,0.0788,0.0312,0.3460,1.2217,-9.7741,1.8025,7.1555,172.6187,0.0000,0.0000,0.0000,0.0000,0.0000,หนึ่ง
63236,-0.2139,0.0553,0.0574,0.3089,1.2205,-9.7579,1.8021,7.1525,172.6216,0.0000,0.0000,0.0000,0.0000,0.0000,หนึ่ง
63352,-0.2099,0.0083,0.0000,0.3059,1.1953,-9.7400,1.8005,7.1366,172.6375,0.0000,0.0000,0.0000,0.0000,0.0000,หนึ่ง
63468,-0.1910,0.0911,0.0087,0.3220,1.1888,-9.6981,1.8092,7.1215,172.6500,0.0000,0.0000,0.0000,0.0000,0.0000,หนึ่ง
63584,-0.1997,0.0397,-0.0454,0.3280,1.2438,-9.7274,1.8198,7.1376,172.6317,0.0000,0.0000,0.0000,0.0000,0.0000,หนึ่ง
63700,-0.1939,0.0600,0.0855,0.3059,1.2115,-9.7453,1.8162,7.1321,172.6379,0.0000,0.0000,0.0000,0.0000,0.0000,หนึ่ง
63816,-0.2097,0.0723,-0.0630,0.3669,1.2031,-9.7489,1.8485,7.1220,172.6396,0.0000,0.0000,0.0000,0.0000,0.0000,หนึ่ง
63932,-0.2029,0.0514,0.0575,0.3005,1.2217,-9.7465,1.8389,7.1239,172.6402,0.0000,0.0000,0.0000,0.0000,0.0000,หนึ่ง
64048,-0.1917,0.0634,-0.0364,0.3262,1.2438,-9.7693,1.8448,7.1367,172.6263,0.0000,0.0000,0.0000,0.0000,0.0000,หนึ่ง
64164,-0.2199,0.0578,-0.0521,0.3346,1.2253,-9.7579,1.8552,7.1383,172.6221,0.0000,0.0000,0.0000,0.0000,0.0000,หนึ่ง
64280,-0.1475,0.0354,-0.0564,0.1706,1.0888,-9.7884,1.7687,7.0590,172.7206,0.0000,0.0000,0.0000,0.0000,0.0000,break_time
64396,-0.1648,0.0847,-0.0567,0.3089,1.1546,-9.6885,1.7731,7.0326,172.7452,0.0000,0.0000,0.0000,0.0000,0.0000,break_time
64512,-0.1734,0.0483,0.0414,0.4561,1.1457,-9.7531,1.8618,6.9986,172.7556,0.0000,0.0000,0.0000,0.0000,0.0000,break_time
64628,-0.2109,0.0630,-0.0405,0.3208,1.2337,-9.7465,1.8627,7.0197,172.7349,0.0000,0.0000,0.0000,0.0000,0.0000,break_time
64744,-0.2044,0.0731,0.0183,0.2969,1.2624,-9.7202,1.8499,7.0573,172.7018,0.0000,0.0000,0.0000,0.0000,0.0000,break_time
64860,-0.1924,0.0551,0.0026,0.3556,1.1947,-9.7459,1.8723,7.0501,172.7031,0.0000,0.0000,0.0000,0.0000,0.0000,break_time
64976,-0.2214,0.0826,0.0541,0.2837,1.2247,-9.7513,1.8504,7.0606,172.6986,0.0000,0.0000,0.0000,0.0000,0.0000,break_time
65092,-0.2012,0.0998,0.0125,0.3029,1.1924,-9.7268,1.8424,7.0531,172.7079,0.0000,0.0000,0.0000,0.0000,0.0000,break_time
65208,-0.1971,0.0579,0.0187,0.3442,1.2127,-9.7453,1.8589,7.0567,172.7002,0.0000,0.0000,0.0000,0.0000,0.0000,break_time
65324,-0.1801,0.0502,0.0263,0.3645,1.2103,-9.7741,1.8851,7.0564,172.6936,0.0000,0.0000,0.0000,0.0000,0.0000,break_time
65440,-0.1757,0.0758,0.0405,0.3202,1.2199,-9.7406,1.8834,7.0642,172.6865,0.0000,0.0000,0.0000,0.0000,0.0000,break_time
65556,-0.1986,0.0802,-0.0119,0.2909,1.2546,-9.7603,1.8644,7.0900,172.6665,0.0000,0.0000,0.0000,0.0000,0.0000,break_time
65672,-0.1898,0.0568,-0.0312,0.4088,1.2211,-9.7471,1.9163,7.0945,172.6487,0.0000,0.0000,0.0000,0.0000,0.0000,break_time
65788,-0.2204,0.0558,-0.0337,0.3095,1.2325,-9.7531,1.9049,7.1049,172.6416,0.0000,0.0000,0.0000,0.0000,0.0000,break_time
65904,-0.2185,0.0849,0.0252,0.3322,1.2217,-9.7023,1.9090,7.1116,172.6340,0.0000,0.0000,0.0000,0.0000,0.0000,break_time
66020,-0.1974,0.0796,0.0053,0.4914,1.4396,-9.7058,2.0049,7.2432,172.4816,0.0000,0.0000,0.0000,0.0000,0.0000,break_time
66136,-0.2469,0.1359,-0.0074,0.3107,1.0613,-9.7142,1.9866,7.1424,172.5836,0.0000,0.0000,0.0000,0.0000,0.0000,break_time
66252,-0.1872,0.0115,0.0076,0.3484,1.1211,-9.7998,1.9902,7.0801,172.6427,0.0000,0.0000,0.0000,0.0000,0.0000,break_time
66368,-0.1541,0.0372,0.0095,0.2933,1.1301,-9.7453,1.9625,7.0333,172.6953,0.0000,0.0000,0.0000,0.0000,0.0000,break_time
66484,-0.1670,0.0668,-0.0545,0.3286,1.2133,-9.7232,1.9583,7.0409,172.6892,0.0000,0.0000,0.0000,0.0000,0.0000,break_time
66600,-0.1639,0.0532,0.0425,0.3346,1.2271,-9.7442,1.9576,7.0541,172.6766,0.0000,0.0000,0.0000,0.0000,0.0000,break_time
66716,-0.2439,0.0815,-0.0188,0.3011,1.2331,-9.6951,1.9384,7.0731,172.6635,0.0000,0.0000,0.0000,0.0000,0.0000,break_time
66832,-0.2016,0.0687,-0.0229,0.3262,1.2079,-9.7561,1.9346,7.0712,172.6663,0.0000,0.0000,0.0000,0.0000,0.0000,break_time
66948,-0.1915,0.0675,0.0026,0.3029,1.2109,-9.7262,1.9182,7.0734,172.6685,0.0000,0.0000,0.0000,0.0000,0.0000,break_time
67064,-0.2275,0.0924,-0.0150,0.3837,1.1828,-9.7603,1.9499,7.0565,172.6764,0.0000,0.0000,0.0000,0.0000,0.0000,break_time
67180,-0.1930,0.0646,0.0215,0.2508,1.2331,-9.7495,1.9010,7.0715,172.6750,0.0000,0.0000,0.0000,0.0000,0.0000,break_time
67296,-0.1907,0.0830,0.0196,0.3053,1.2277,-9.7196,1.8894,7.0838,172.6660,0.0000,0.0000,0.0000,0.0000,0.0000,nothing
67412,-0.1839,0.0514,0.0173,0.3747,1.1912,-9.7328,1.9193,7.0727,172.6689,0.0000,0.0000,0.0000,0.0000,0.0000,nothing
67528,-0.1960,0.0962,0.0742,0.2975,1.2372,-9.7256,1.9012,7.0901,172.6569,0.0000,0.0000,0.0000,0.0000,0.0000,nothing
67644,-0.2027,0.0635,-0.0303,0.3843,1.2307,-9.7615,1.9349,7.0991,172.6393,0.0000,0.0000,0.0000,0.0000,0.0000,nothing
67760,-0.2300,0.0889,0.0177,0.3364,1.3318,-9.6053,1.9400,7.1773,172.5625,0.0000,0.0000,0.0000,0.0000,0.0000,สอง
67876,-0.2660,-0.0162,-0.0012,0.3975,1.1953,-9.8124,1.9765,7.1534,172.5758,0.0000,0.0000,0.0000,0.0000,0.0000,สอง
67992,-0.2555,0.0815,0.0357,0.3621,1.3863,-9.6580,1.9914,7.2538,172.4750,0.0000,0.0000,0.0000,0.0000,0.0000,สอง
68108,-0.2436,0.0952,0.0902,0.2939,1.1445,-9.7980,1.9628,7.1941,172.5403,0.0000,0.0000,0.0000,0.0000,0.0000,สอง
68224,-0.2079,0.0592,0.0035,0.3304,1.2013,-9.7352,1.9594,7.1777,172.5569,0.0000,0.0000,0.0000,0.0000,0.0000,สอง
68340,-0.2117,0.0454,-0.0348,0.2927,1.2079,-9.7819,1.9335,7.1636,172.5775,0.0000,0.0000,0.0000,0.0000,0.0000,สอง
68456,-0.2328,0.0667,0.0215,0.2915,1.1882,-9.6843,1.9114,7.1465,172.5998,0.0000,0.0000,0.0000,0.0000,0.0000,สอง
68572,-0.2027,0.0654,0.0162,0.3238,1.1959,-9.7459,1.9091,7.1310,172.6153,0.0000,0.0000,0.0000,0.0000,0.0000,สอง
68688,-0.1329,0.0829,0.0582,0.3597,1.2097,-9.7364,1.9282,7.1257,172.6154,0.0000,0.0000,0.0000,0.0000,0.0000,สอง
68804,-0.2613,0.0862,-0.0146,0.3286,1.0110,-10.0063,1.9225,6.9867,172.7511,0.0000,0.0000,0.0000,0.0000,0.0000,break_time
68920,-0.1479,-0.0128,-0.0131,0.3633,1.1307,-9.7483,1.9422,6.9492,172.7819,0.0000,0.0000,0.0000,0.0000,0.0000,break_time
69036,-0.1572,0.0254,-0.0393,0.2346,1.2361,-9.7226,1.8853,6.9786,172.7688,0.0000,0.0000,0.0000,0.0000,0.0000,break_time
69152,-0.2060,0.0502,0.0260,0.3352,1.2768,-9.7406,1.8922,7.0270,172.7202,0.0000,0.0000,0.0000,0.0000,0.0000,break_time
69268,-0.2185,0.0672,-0.0101,0.3238,1.2265,-9.7795,1.8912,7.0388,172.7091,0.0000,0.0000,0.0000,0.0000,0.0000,break_time
69384,-0.1959,0.0870,-0.0868,0.3280,1.2139,-9.7555,1.8932,7.0438,172.7037,0.0000,0.0000,0.0000,0.0000,0.0000,break_time
69500,-0.1974,0.0579,-0.0192,0.3514,1.1989,-9.7220,1.9092,7.0420,172.7012,0.0000,0.0000,0.0000,0.0000,0.0000,break_time
69616,-0.1804,0.0564,-0.0074,0.3011,1.2175,-9.7483,1.8938,7.0494,172.6982,0.0000,0.0000,0.0000,0.0000,0.0000,break_time
69732,-0.1943,0.0541,0.0061,0.3143,1.1900,-9.7621,1.8875,7.0391,172.7098,0.0000,0.0000,0.0000,0.0000,0.0000,break_time
69848,-0.1820,0.0488,0.1201,0.3154,1.2151,-9.7088,1.8834,7.0481,172.7021,0.0000,0.0000,0.0000,0.0000,0.0000,break_time
69964,-0.1639,0.0665,-0.0540,0.2915,1.2247,-9.7603,1.8648,7.0582,172.6972,0.0000,0.0000,0.0000,0.0000,0.0000,break_time
70080,-0.2150,0.0536,0.0022,0.3226,1.2857,-9.7346,1.8665,7.1043,172.6521,0.0000,0.0000,0.0000,0.0000,0.0000,break_time
70196,-0.2042,0.0878,0.0119,0.4465,1.2420,-9.7298,1.9404,7.1206,172.6171,0.0000,0.0000,0.0000,0.0000,0.0000,break_time
70312,-0.1242,0.1268,0.0536,0.3460,1.3761,-9.6849,1.9489,7.2164,172.5223,0.0000,0.0000,0.0000,0.0000,0.0000,break_time
70428,-0.1917,0.1423,-0.0357,0.4447,1.3240,-9.6831,2.0144,7.2724,172.4509,0.0000,0.0000,0.0000,0.0000,0.0000,break_time
70544,-0.2871,0.0579,0.0110,0.3855,1.2444,-9.7525,2.0375,7.2718,172.4452,0.0000,0.0000,0.0000,0.0000,0.0000,break_time
70660,-0.2229,0.0596,0.0157,0.2777,1.1846,-9.7495,1.9957,7.2371,172.4899,0.0000,0.0000,0.0000,0.0000,0.0000,break_time
70776,-0.1678,0.0511,-0.0611,0.3621,1.2366,-9.6987,2.0082,7.2395,172.4842,0.0000,0.0000,0.0000,0.0000,0.0000,break_time
70892,-0.2320,0.0690,-0.0330,0.3334,1.2235,-9.7657,2.0014,7.2292,172.4960,0.0000,0.0000,0.0000,0.0000,0.0000,break_time
71008,-0.2007,0.0556,0.0492,0.2957,1.2313,-9.6861,1.9749,7.2304,172.5020,0.0000,0.0000,0.0000,0.0000,0.0000,break_time
71124,-0.1911,0.0792,-0.0269,0.3627,1.2199,-9.7430,1.9889,7.2205,172.5077,0.0000,0.0000,0.0000,0.0000,0.0000,break_time
71240,-0.2018,0.0813,0.0601,0.3430,1.1804,-9.7657,1.9897,7.1872,172.5397,0.0000,0.0000,0.0000,0.0000,0.0000,break_time
71356,-0.2301,0.0558,-0.0492,0.3178,1.2013,-9.7208,1.9767,7.1726,172.5572,0.0000,0.0000,0.0000,0.0000,0.0000,break_time
71472,-0.1670,0.0607,-0.0065,0.2945,1.2390,-9.7872,1.9499,7.1766,172.5605,0.0000,0.0000,0.0000,0.0000,0.0000,break_time
71588,-0.2132,0.0778,-0.0240,0.3029,1.2211,-9.7495,1.9314,7.1725,172.5694,0.0000,0.0000,0.0000,0.0000,0.0000,break_time
71704,-0.1903,0.0260,-0.0303,0.3436,1.0978,-9.7501,1.9388,7.0973,172.6400,0.0000,0.0000,0.0000,0.0000,0.0000,nothing
71820,-0.2462,0.0601,-0.0187,0.3639,1.2277,-9.7436,1.9572,7.1052,172.6275,0.0000,0.0000,0.0000,0.0000,0.0000,nothing
71936,-0.1855,0.0889,0.0549,0.3053,1.2259,-9.7471,1.9394,7.1112,172.6265,0.0000,0.0000,0.0000,0.0000,0.0000,nothing
72052,-0.1988,0.0622,0.0263,0.3023,1.2079,-9.7238,1.9222,7.1078,172.6342,0.0000,0.0000,0.0000,0.0000,0.0000,nothing
72168,-0.3566,0.0394,-0.0434,0.2358,1.4048,-9.9848,1.8626,7.1999,172.5606,0.0000,0.0000,0.0000,0.0000,0.0000,error_redo
72284,-0.1077,0.0858,0.0927,0.1832,0.8937,-9.6478,1.7859,7.0119,172.7621,0.0000,0.0000,0.0000,0.0000,0.0000,error_redo
72400,-0.1388,0.0487,-0.0140,0.4022,1.2474,-9.7980,1.8408,7.0358,172.7251,0.0000,0.0000,0.0000,0.0000,0.0000,error_redo
72516,-0.1988,0.0571,0.0694,0.3113,1.2253,-9.7358,1.8384,7.0491,172.7127,0.0000,0.0000,0.0000,0.0000,0.0000,error_redo
72632,-0.2009,0.0673,-0.0219,0.3274,1.2408,-9.7346,1.8456,7.0702,172.6905,0.0000,0.0000,0.0000,0.0000,0.0000,error_redo
72748,-0.1865,0.0934,-0.0222,0.3448,1.2061,-9.7543,1.8620,7.0676,172.6888,0.0000,0.0000,0.0000,0.0000,0.0000,error_redo
72864,-0.2650,0.0676,-0.0470,0.3011,1.2301,-9.7292,1.8516,7.0811,172.6784,0.0000,0.0000,0.0000,0.0000,0.0000,error_redo
72980,-0.2121,0.0652,0.0029,0.2861,1.2576,-9.7513,1.8332,7.1075,172.6575,0.0000,0.0000,0.0000,0.0000,0.0000,error_redo
73096,-0.2135,0.0832,-0.0157,0.2765,1.1768,-9.7675,1.8108,7.0835,172.6864,0.0000,0.0000,0.0000,0.0000,0.0000,error_redo
73212,-0.1791,0.0605,0.0551,0.3035,1.1523,-9.7747,1.8063,7.0471,172.7228,0.0000,0.0000,0.0000,0.0000,0.0000,error_redo
73328,-0.1851,0.1213,-0.0541,0.3579,1.3546,-9.6047,1.8367,7.1434,172.6218,0.0000,0.0000,0.0000,0.0000,0.0000,cooldown
73444,-0.2406,0.1532,-0.0108,0.2658,1.4198,-9.7370,1.8077,7.2586,172.5173,0.0000,0.0000,0.0000,0.0000,0.0000,cooldown
73560,-0.2095,0.0688,-0.0720,0.4088,1.2043,-9.6951,1.8663,7.2404,172.5205,0.0000,0.0000,0.0000,0.0000,0.0000,cooldown
73676,-0.1934,0.0431,-0.0301,0.3154,1.2103,-9.7962,1.8627,7.2202,172.5409,0.0000,0.0000,0.0000,0.0000,0.0000,cooldown
73792,-0.2215,0.0733,-0.0971,0.3430,1.2444,-9.7184,1.8769,7.2274,172.5303,0.0000,0.0000,0.0000,0.0000,0.0000,cooldown
73908,-0.1786,0.0438,-0.0169,0.3119,1.2265,-9.7406,1.8712,7.2220,172.5371,0.0000,0.0000,0.0000,0.0000,0.0000,cooldown
74024,-0.2161,0.0563,-0.0042,0.2927,1.2408,-9.7465,1.8547,7.2250,172.5383,0.0000,0.0000,0.0000,0.0000,0.0000,cooldown
74140,-0.1906,0.0811,0.0135,0.3502,1.2253,-9.7136,1.8740,7.2210,172.5373,0.0000,0.0000,0.0000,0.0000,0.0000,cooldown
74256,-0.2108,0.0763,0.0255,0.3298,1.2217,-9.7573,1.8787,7.2121,172.5447,0.0000,0.0000,0.0000,0.0000,0.0000,cooldown
74372,-0.2082,0.0683,0.0165,0.2586,1.1816,-9.7519,1.8416,7.1815,172.5837,0.0000,0.0000,0.0000,0.0000,0.0000,cooldown
74488,-0.1868,0.0768,0.0652,0.3172,1.2145,-9.7561,1.8423,7.1726,172.5922,0.0000,0.0000,0.0000,0.0000,0.0000,cooldown
74604,-0.2159,0.0570,-0.0676,0.3292,1.2325,-9.6885,1.8511,7.1798,172.5829,0.0000,0.0000,0.0000,0.0000,0.0000,cooldown
74720,-0.2166,0.0913,0.0214,0.2795,1.2049,-9.7633,1.8287,7.1651,172.6029,0.0000,0.0000,0.0000,0.0000,0.0000,cooldown
74836,-0.1855,0.0772,0.0233,0.3424,1.2181,-9.7220,1.8459,7.1623,172.6012,0.0000,0.0000,0.0000,0.0000,0.0000,cooldown
74952,-0.1809,0.0669,0.0204,0.3160,1.2217,-9.7525,1.8455,7.1597,172.6038,0.0000,0.0000,0.0000,0.0000,0.0000,cooldown
75068,-0.1979,0.0496,0.0076,0.3514,1.3749,-9.7328,1.8657,7.2474,172.5138,0.0000,0.0000,0.0000,0.0000,0.0000,cooldown
75184,-0.1949,0.0926,-0.0331,0.3262,1.2720,-9.7699,1.8688,7.2641,172.4968,0.0000,0.0000,0.0000,0.0000,0.0000,cooldown
75300,-0.2239,0.0526,0.0116,0.2891,1.2283,-9.7639,1.8502,7.2544,172.5110,0.0000,0.0000,0.0000,0.0000,0.0000,cooldown
75416,-0.2089,0.0875,0.0327,0.2969,1.2163,-9.7304,1.8386,7.2411,172.5267,0.0000,0.0000,0.0000,0.0000,0.0000,cooldown
75532,-0.2236,0.0683,0.0082,0.3196,1.2480,-9.7693,1.8406,7.2446,172.5228,0.0000,0.0000,0.0000,0.0000,0.0000,cooldown
75648,-0.1984,0.0923,0.0669,0.2795,1.2235,-9.7046,1.8203,7.2385,172.5338,0.0000,0.0000,0.0000,0.0000,0.0000,cooldown
75764,-0.2007,0.0653,-0.0339,0.3406,1.2013,-9.7657,1.8366,7.2155,172.5521,0.0000,0.0000,0.0000,0.0000,0.0000,cooldown
75880,-0.2184,0.0686,0.0210,0.3137,1.1882,-9.7220,1.8363,7.1904,172.5764,0.0000,0.0000,0.0000,0.0000,0.0000,cooldown
75996,-0.1785,0.0517,-0.0746,0.3202,1.2558,-9.7334,1.8396,7.2061,172.5604,0.0000,0.0000,0.0000,0.0000,0.0000,cooldown
76112,-0.2361,0.0545,0.0232,0.3394,1.2432,-9.7388,1.8536,7.2126,172.5506,0.0000,0.0000,0.0000,0.0000,0.0000,cooldown
76228,-0.1749,0.0793,0.0481,0.3125,1.2343,-9.7256,1.8508,7.2142,172.5497,0.0000,0.0000,0.0000,0.0000,0.0000,cooldown
76344,-0.2039,0.0780,0.0440,0.3490,1.2001,-9.7777,1.8687,7.1920,172.5667,0.0000,0.0000,0.0000,0.0000,0.0000,cooldown
76460,-0.1956,0.0504,0.0410,0.3358,1.2073,-9.7591,1.8774,7.1776,172.5784,0.0000,0.0000,0.0000,0.0000,0.0000,cooldown
76576,-0.1924,0.1021,0.0199,0.2951,1.2289,-9.7298,1.8620,7.1794,172.5806,0.0000,0.0000,0.0000,0.0000,0.0000,cooldown
76692,-0.2275,0.0515,0.0179,0.3813,1.1816,-9.7190,1.8988,7.1542,172.5956,0.0000,0.0000,0.0000,0.0000,0.0000,cooldown
76808,-0.1890,0.0568,0.0439,0.3083,1.1965,-9.7489,1.8886,7.1381,172.6137,0.0000,0.0000,0.0000,0.0000,0.0000,cooldown
76924,-0.1775,0.0808,0.0652,0.2807,1.2259,-9.7418,1.8636,7.1412,172.6172,0.0000,0.0000,0.0000,0.0000,0.0000,cooldown
77040,-0.1973,0.0828,0.0506,0.3280,1.1989,-9.7465,1.8685,7.1280,172.6287,0.0000,0.0000,0.0000,0.0000,0.0000,cooldown
77156,-0.1993,0.0757,0.0085,0.3053,1.2384,-9.7328,1.8599,7.1400,172.6193,0.0000,0.0000,0.0000,0.0000,0.0000,cooldown
77272,-0.2124,0.0939,0.0697,0.3148,1.2528,-9.7543,1.8573,7.1575,172.6030,0.0000,0.0000,0.0000,0.0000,0.0000,cooldown
77388,-0.1919,0.0413,0.0420,0.2885,1.2247,-9.7729,1.8393,7.1557,172.6093,0.0000,0.0000,0.0000,0.0000,0.0000,cooldown
77504,-0.1955,0.0639,-0.0064,0.3226,1.2013,-9.7555,1.8433,7.1418,172.6217,0.0000,0.0000,0.0000,0.0000,0.0000,cooldown
77620,-0.2074,0.0547,0.0172,0.3681,1.2151,-9.7118,1.8743,7.1403,172.6153,0.0000,0.0000,0.0000,0.0000,0.0000,cooldown
77736,-0.2099,0.0688,-0.0097,0.3292,1.2049,-9.7615,1.8786,7.1295,172.6246,0.0000,0.0000,0.0000,0.0000,0.0000,cooldown
77852,-0.1988,0.0698,0.0566,0.2712,1.2247,-9.7005,1.8497,7.1358,172.6259,0.0000,0.0000,0.0000,0.0000,0.0000,cooldown
77968,-0.2140,0.0727,-0.0033,0.3436,1.2223,-9.7376,1.8652,7.1373,172.6206,0.0000,0.0000,0.0000,0.0000,0.0000,cooldown
78084,-0.1862,0.0678,0.0305,0.3418,1.1942,-9.7639,1.8777,7.1204,172.6337,0.0000,0.0000,0.0000,0.0000,0.0000,cooldown
78200,-0.2069,0.0578,0.0623,0.2729,1.1959,-9.7160,1.8498,7.1098,172.6511,0.0000,0.0000,0.0000,0.0000,0.0000,cooldown
78316,-0.2134,0.0526,-0.0123,0.3412,1.1780,-9.7352,1.8640,7.0884,172.6682,0.0000,0.0000,0.0000,0.0000,0.0000,cooldown
78432,-0.2127,0.0525,0.1014,0.2897,1.2444,-9.7064,1.8473,7.1097,172.6518,0.0000,0.0000,0.0000,0.0000,0.0000,cooldown
78548,-0.2213,0.0979,-0.0273,0.3346,1.2061,-9.7687,1.8573,7.1022,172.6566,0.0000,0.0000,0.0000,0.0000,0.0000,cooldown
78664,-0.2598,0.0754,0.0207,0.3478,1.1517,-9.7370,1.8747,7.0661,172.6870,0.0000,0.0000,0.0000,0.0000,0.0000,cooldown
78780,-0.2161,0.0372,0.0149,0.2867,1.1870,-9.7878,1.8537,7.0506,172.7074,0.0000,0.0000,0.0000,0.0000,0.0000,cooldown
78896,-0.1869,0.0442,0.0249,0.3244,1.1953,-9.7418,1.8576,7.0447,172.7121,0.0000,0.0000,0.0000,0.0000,0.0000,cooldown
79012,-0.1900,0.0514,0.0149,0.3101,1.2319,-9.7328,1.8529,7.0612,172.6973,0.0000,0.0000,0.0000,0.0000,0.0000,cooldown
79128,-0.1730,0.0661,0.0378,0.3154,1.2163,-9.7633,1.8512,7.0649,172.6942,0.0000,0.0000,0.0000,0.0000,0.0000,cooldown
79244,-0.1960,0.0746,0.0507,0.3771,1.2343,-9.7178,1.8865,7.0816,172.6689,0.0000,0.0000,0.0000,0.0000,0.0000,cooldown
79360,-0.1971,0.0892,0.0018,0.2682,1.1947,-9.7352,1.8545,7.0729,172.6856,0.0000,0.0000,0.0000,0.0000,0.0000,cooldown
79476,-0.1748,0.0613,0.0090,0.3166,1.1942,-9.7106,1.8544,7.0663,172.6920,0.0000,0.0000,0.0000,0.0000,0.0000,cooldown
79592,-0.2089,0.0476,0.0320,0.3364,1.1942,-9.7597,1.8649,7.0568,172.6985,0.0000,0.0000,0.0000,0.0000,0.0000,cooldown
79708,-0.1990,0.0575,0.0305,0.2765,1.2780,-9.7489,1.8395,7.0977,172.6654,0.0000,0.0000,0.0000,0.0000,0.0000,cooldown
79824,-0.2128,0.0833,0.0390,0.3502,1.2247,-9.7406,1.8598,7.1041,172.6540,0.0000,0.0000,0.0000,0.0000,0.0000,cooldown
79940,-0.2084,0.0883,0.0476,0.3190,1.1744,-9.7507,1.8599,7.0801,172.6772,0.0000,0.0000,0.0000,0.0000,0.0000,cooldown
80056,-0.1797,0.0581,-0.0592,0.3376,1.2223,-9.7597,1.8705,7.0855,172.6693,0.0000,0.0000,0.0000,0.0000,0.0000,cooldown
80172,-0.2046,0.0534,-0.0100,0.3268,1.1756,-9.7669,1.8738,7.0629,172.6903,0.0000,0.0000,0.0000,0.0000,0.0000,cooldown
80288,-0.1847,0.0390,0.0663,0.2789,1.2085,-9.7669,1.8487,7.0617,172.6979,0.0000,0.0000,0.0000,0.0000,0.0000,cooldown
80404,-0.2139,0.0814,0.0785,0.2735,1.2169,-9.7406,1.8235,7.0674,172.6989,0.0000,0.0000,0.0000,0.0000,0.0000,cooldown
80520,-0.1909,0.0708,0.0421,0.3143,1.2343,-9.6963,1.8253,7.0856,172.6807,0.0000,0.0000,0.0000,0.0000,0.0000,cooldown
80636,-0.2101,0.0639,0.0345,0.2777,1.1828,-9.7519,1.8047,7.0683,172.7027,0.0000,0.0000,0.0000,0.0000,0.0000,cooldown
80752,-0.1685,0.0504,-0.0307,0.3184,1.1672,-9.7412,1.8101,7.0444,172.7245,0.0000,0.0000,0.0000,0.0000,0.0000,cooldown
80868,-0.1730,0.0728,-0.0138,0.2879,1.2869,-9.7633,1.7965,7.0907,172.6830,0.0000,0.0000,0.0000,0.0000,0.0000,cooldown
