timestamp_ms,gyro_x,gyro_y,gyro_z,accel_x,accel_y,accel_z,roll,pitch,yaw,adc0,adc1,adc2,adc3,adc4,Label
37833,-0.2065,0.0713,0.0378,0.3119,1.2313,-9.7627,1.8236,7.1488,172.6199,0.0000,0.0000,0.0000,0.0000,0.0000,nothing
37949,-0.1900,0.0776,0.0225,0.3137,1.2325,-9.7023,1.8249,7.1574,172.6112,0.0000,0.0000,0.0000,0.0000,0.0000,nothing
38065,-0.2072,0.0742,-0.0049,0.3071,1.2127,-9.7340,1.8217,7.1515,172.6178,0.0000,0.0000,0.0000,0.0000,0.0000,nothing
38181,-0.2001,0.0727,0.0434,0.3346,1.2193,-9.7430,1.8348,7.1493,172.6167,0.0000,0.0000,0.0000,0.0000,0.0000,nothing
38297,-0.1819,0.0713,-0.0237,0.2580,1.1971,-9.7663,1.8014,7.1329,172.6408,0.0000,0.0000,0.0000,0.0000,0.0000,nothing
38413,-0.1978,0.0631,0.0712,0.3334,1.2133,-9.7573,1.8155,7.1280,172.6421,0.0000,0.0000,0.0000,0.0000,0.0000,nothing
38529,-0.2109,0.0999,-0.0344,0.2999,1.2187,-9.7172,1.8093,7.1297,172.6420,0.0000,0.0000,0.0000,0.0000,0.0000,nothing
38645,-0.2135,0.0836,0.0901,0.1736,1.2552,-9.7017,1.7303,7.1538,172.6378,0.0000,0.0000,0.0000,0.0000,0.0000,nothing
38761,-0.1917,0.0410,-0.0256,0.3107,1.2079,-9.7094,1.7391,7.1473,172.6421,0.0000,0.0000,0.0000,0.0000,0.0000,nothing
38877,-0.1892,0.0511,-0.0053,0.3472,1.2139,-9.7471,1.7677,7.1420,172.6403,0.0000,0.0000,0.0000,0.0000,0.0000,nothing
38993,-0.2016,0.0912,0.0070,0.2927,1.2103,-9.7154,1.7622,7.1376,172.6459,0.0000,0.0000,0.0000,0.0000,0.0000,nothing
39109,-0.1899,0.0672,0.0104,0.2897,1.3755,-9.7094,1.7552,7.2298,172.5580,0.0000,0.0000,0.0000,0.0000,0.0000,nothing
39225,-0.2054,0.0739,0.0037,0.3196,1.1894,-9.7220,1.7666,7.2039,172.5804,0.0000,0.0000,0.0000,0.0000,0.0000,nothing
39341,-0.2059,0.0600,0.0027,0.3232,1.2091,-9.7005,1.7793,7.1937,172.5873,0.0000,0.0000,0.0000,0.0000,0.0000,nothing
39457,-0.2114,0.0770,0.0097,0.3376,1.2408,-9.7436,1.7982,7.1997,172.5769,0.0000,0.0000,0.0000,0.0000,0.0000,nothing
39573,-0.2214,0.0668,0.0390,0.2915,1.2420,-9.7418,1.7884,7.2060,172.5732,0.0000,0.0000,0.0000,0.0000,0.0000,nothing
39689,-0.1954,0.0807,0.0376,0.3448,1.2157,-9.7495,1.8106,7.1957,172.5777,0.0000,0.0000,0.0000,0.0000,0.0000,nothing
39805,-0.2183,0.0559,0.0376,0.2921,1.2091,-9.7370,1.8000,7.1837,172.5919,0.0000,0.0000,0.0000,0.0000,0.0000,nothing
39921,-0.2083,0.0804,-0.0274,0.3418,1.2594,-9.7238,1.8197,7.2028,172.5685,0.0000,0.0000,0.0000,0.0000,0.0000,nothing
40037,-0.2154,0.0863,0.0329,0.3244,1.2331,-9.7346,1.8271,7.2040,172.5655,0.0000,0.0000,0.0000,0.0000,0.0000,nothing
40153,-0.2131,0.0637,-0.0094,0.2981,1.2265,-9.7316,1.8184,7.2016,172.5700,0.0000,0.0000,0.0000,0.0000,0.0000,nothing
40269,-0.2090,0.0877,0.0412,0.2694,1.1959,-9.6945,1.7947,7.1845,172.5924,0.0000,0.0000,0.0000,0.0000,0.0000,nothing
40385,-0.2307,0.0732,-0.0025,0.3137,1.1882,-9.7292,1.7985,7.1620,172.6133,0.0000,0.0000,0.0000,0.0000,0.0000,nothing
40501,-0.2042,0.0791,0.0102,0.3083,1.2229,-9.7322,1.7986,7.1616,172.6137,0.0000,0.0000,0.0000,0.0000,0.0000,nothing
40617,-0.2180,0.0747,0.0048,0.3238,1.2283,-9.7280,1.8079,7.1647,172.6084,0.0000,0.0000,0.0000,0.0000,0.0000,nothing
40733,-0.1864,0.0763,0.0100,0.3352,1.2414,-9.7424,1.8226,7.1740,172.5957,0.0000,0.0000,0.0000,0.0000,0.0000,nothing
40849,-0.2262,0.1272,-0.0239,0.3334,1.2259,-9.7304,1.8351,7.1742,172.5924,0.0000,0.0000,0.0000,0.0000,0.0000,nothing
40965,-0.2125,0.0957,0.0378,0.2981,1.2037,-9.7142,1.8260,7.1629,172.6057,0.0000,0.0000,0.0000,0.0000,0.0000,nothing
41081,-0.2195,0.0390,0.0633,0.2843,1.2420,-9.7070,1.8099,7.1754,172.5975,0.0000,0.0000,0.0000,0.0000,0.0000,nothing
41197,-0.2266,0.0706,-0.0431,0.2957,1.2127,-9.7400,1.8014,7.1673,172.6075,0.0000,0.0000,0.0000,0.0000,0.0000,nothing
41313,-0.1985,0.0814,-0.0048,0.3005,1.2241,-9.7394,1.7966,7.1666,172.6094,0.0000,0.0000,0.0000,0.0000,0.0000,nothing
41429,-0.2069,0.0615,-0.0018,0.3172,1.2169,-9.7106,1.8026,7.1638,172.6106,0.0000,0.0000,0.0000,0.0000,0.0000,nothing
41545,-0.1900,0.0694,-0.0174,0.3633,1.2127,-9.6957,1.8352,7.1599,172.6063,0.0000,0.0000,0.0000,0.0000,0.0000,nothing
41661,-0.1737,0.0819,0.0254,0.3310,1.2217,-9.7591,1.8445,7.1570,172.6067,0.0000,0.0000,0.0000,0.0000,0.0000,nothing
41777,-0.1921,0.0739,0.0119,0.3113,1.2115,-9.7017,1.8424,7.1528,172.6113,0.0000,0.0000,0.0000,0.0000,0.0000,nothing
41893,-0.3900,0.0658,0.0973,0.1065,1.5641,-9.8495,1.7176,7.3428,172.4569,0.0000,0.0000,0.0000,0.0000,0.0000,สาม
42009,-0.1990,0.0653,-0.0335,0.2891,1.0900,-9.6927,1.7156,7.2504,172.5473,0.0000,0.0000,0.0000,0.0000,0.0000,สาม
42125,-0.1328,0.0562,0.0750,0.3065,1.0661,-9.7531,1.7230,7.1488,172.6443,0.0000,0.0000,0.0000,0.0000,0.0000,สาม
42241,-0.1246,0.0519,0.0427,0.3819,1.2552,-9.7424,1.7734,7.1676,172.6140,0.0000,0.0000,0.0000,0.0000,0.0000,สาม
42357,-0.1873,0.0652,-0.0016,0.3208,1.2361,-9.7352,1.7833,7.1740,172.6054,0.0000,0.0000,0.0000,0.0000,0.0000,สาม
42473,-0.1930,0.0754,-0.0645,0.3340,1.2564,-9.7447,1.7997,7.1909,172.5850,0.0000,0.0000,0.0000,0.0000,0.0000,สาม
42589,-0.2300,0.0825,0.0494,0.3035,1.2193,-9.7118,1.7973,7.1871,172.5893,0.0000,0.0000,0.0000,0.0000,0.0000,สาม
42705,-0.2102,0.0798,-0.1057,0.3053,1.3671,-9.7262,1.7956,7.2682,172.5110,0.0000,0.0000,0.0000,0.0000,0.0000,สาม
42821,-0.2318,0.0714,0.0942,0.2843,1.2247,-9.7172,1.7824,7.2594,172.5227,0.0000,0.0000,0.0000,0.0000,0.0000,สาม
42937,-0.2093,0.0634,0.0134,0.3089,1.0792,-9.7298,1.7849,7.1662,172.6125,0.0000,0.0000,0.0000,0.0000,0.0000,สาม
43053,-0.2112,0.0679,0.0177,0.3041,1.1959,-9.7262,1.7841,7.1503,172.6282,0.0000,0.0000,0.0000,0.0000,0.0000,สาม
43169,-0.2056,0.0815,0.0181,0.2837,1.2307,-9.7358,1.7713,7.1554,172.6264,0.0000,0.0000,0.0000,0.0000,0.0000,สาม
43285,-0.2288,0.0680,-0.0380,0.3017,1.2277,-9.7262,1.7704,7.1589,172.6232,0.0000,0.0000,0.0000,0.0000,0.0000,สาม
43401,-0.2072,0.0633,0.0285,0.3166,1.2444,-9.7298,1.7783,7.1715,172.6091,0.0000,0.0000,0.0000,0.0000,0.0000,สาม
43517,-0.1903,0.0799,-0.0496,0.3490,1.2043,-9.7436,1.8041,7.1585,172.6154,0.0000,0.0000,0.0000,0.0000,0.0000,สาม
43633,-0.2035,0.0796,-0.0065,0.2837,1.2319,-9.7076,1.7898,7.1655,172.6120,0.0000,0.0000,0.0000,0.0000,0.0000,สาม
43749,-0.2035,0.0494,0.0029,0.3160,1.1882,-9.7076,1.7959,7.1465,172.6291,0.0000,0.0000,0.0000,0.0000,0.0000,สาม
43865,-0.2166,0.0863,0.0219,0.3202,1.2402,-9.6777,1.8042,7.1616,172.6123,0.0000,0.0000,0.0000,0.0000,0.0000,สาม
43981,-0.1846,0.0598,0.0863,0.2855,1.2109,-9.7561,1.7901,7.1527,172.6244,0.0000,0.0000,0.0000,0.0000,0.0000,สาม
44097,-0.1746,0.0841,-0.0095,0.3334,1.2199,-9.7178,1.8061,7.1525,172.6207,0.0000,0.0000,0.0000,0.0000,0.0000,สาม
44213,-0.1963,0.0755,0.0466,0.3250,1.2325,-9.7196,1.8155,7.1595,172.6116,0.0000,0.0000,0.0000,0.0000,0.0000,สาม
44329,-0.2232,0.0954,-0.0562,0.2921,1.2223,-9.7064,1.8050,7.1610,172.6128,0.0000,0.0000,0.0000,0.0000,0.0000,สาม
44445,-0.2110,0.0892,0.0239,0.3035,1.2085,-9.7406,1.8015,7.1518,172.6225,0.0000,0.0000,0.0000,0.0000,0.0000,สาม
44561,-0.1943,0.1350,-0.0365,0.3388,1.2163,-9.6789,1.8202,7.1524,172.6173,0.0000,0.0000,0.0000,0.0000,0.0000,สาม
44677,-0.2158,0.1003,0.0288,0.2765,1.2199,-9.7166,1.8000,7.1525,172.6222,0.0000,0.0000,0.0000,0.0000,0.0000,สาม
44793,-0.1759,0.0804,-0.0080,0.2927,1.2169,-9.7166,1.7912,7.1508,172.6261,0.0000,0.0000,0.0000,0.0000,0.0000,สาม
44909,-0.2124,0.0721,0.0179,0.2939,1.2450,-9.7268,1.7837,7.1648,172.6143,0.0000,0.0000,0.0000,0.0000,0.0000,สาม
45025,-0.2080,0.0667,-0.0795,0.3436,1.1804,-9.7471,1.8058,7.1383,172.6345,0.0000,0.0000,0.0000,0.0000,0.0000,สาม
45141,-0.2144,0.0810,0.0444,0.3352,1.2378,-9.7483,1.8206,7.1478,172.6217,0.0000,0.0000,0.0000,0.0000,0.0000,สาม
45257,-0.2117,0.0611,-0.0360,0.2741,1.2241,-9.7124,1.7990,7.1510,172.6239,0.0000,0.0000,0.0000,0.0000,0.0000,สาม
45373,-0.2358,0.0701,0.0249,0.2765,1.2157,-9.7238,1.7808,7.1483,172.6310,0.0000,0.0000,0.0000,0.0000,0.0000,สาม
45489,-0.2078,0.0819,0.0202,0.2885,1.1924,-9.7232,1.7714,7.1323,172.6488,0.0000,0.0000,0.0000,0.0000,0.0000,สาม
45605,-0.2200,0.0608,-0.0019,0.2849,1.2241,-9.7328,1.7606,7.1356,172.6482,0.0000,0.0000,0.0000,0.0000,0.0000,สาม
45721,-0.1926,0.0932,-0.0166,0.3322,1.2361,-9.7352,1.7785,7.1452,172.6345,0.0000,0.0000,0.0000,0.0000,0.0000,สาม
45837,-0.2009,0.0723,0.0185,0.2801,1.2283,-9.7064,1.7646,7.1516,172.6317,0.0000,0.0000,0.0000,0.0000,0.0000,สาม
45953,-0.2132,0.0746,-0.0784,0.4573,1.2079,-9.7088,1.8557,7.1449,172.6156,0.0000,0.0000,0.0000,0.0000,0.0000,สาม
46069,-0.1802,0.0703,0.0723,0.3208,1.1846,-9.7280,1.8576,7.1243,172.6350,0.0000,0.0000,0.0000,0.0000,0.0000,สาม
46185,-0.1735,0.0581,0.0011,0.2975,1.2277,-9.7196,1.8458,7.1315,172.6311,0.0000,0.0000,0.0000,0.0000,0.0000,สาม
46301,-0.1720,0.0619,0.0424,0.3998,1.2666,-9.7148,1.8950,7.1605,172.5904,0.0000,0.0000,0.0000,0.0000,0.0000,สาม
46417,-0.1028,0.0559,-0.0203,0.2107,1.2205,-9.7633,1.8279,7.1569,172.6110,0.0000,0.0000,0.0000,0.0000,0.0000,break_time
46533,-0.3645,0.1007,0.0289,0.1856,1.3384,-9.7663,1.7526,7.2218,172.5664,0.0000,0.0000,0.0000,0.0000,0.0000,break_time
46649,-0.2883,0.0947,0.0735,0.3011,1.1684,-9.7352,1.7532,7.1837,172.6033,0.0000,0.0000,0.0000,0.0000,0.0000,break_time
46765,-0.1714,0.0320,0.0170,0.2047,1.1343,-9.7346,1.6976,7.1299,172.6688,0.0000,0.0000,0.0000,0.0000,0.0000,break_time
46881,-0.1475,0.0627,-0.0124,0.3394,1.1882,-9.7741,1.7254,7.1095,172.6820,0.0000,0.0000,0.0000,0.0000,0.0000,break_time
46997,-0.1862,0.0353,-0.0244,0.2897,1.1965,-9.7561,1.7217,7.0974,172.6946,0.0000,0.0000,0.0000,0.0000,0.0000,break_time
47113,-0.1939,0.0750,-0.0622,0.2921,1.2121,-9.7388,1.7200,7.0968,172.6956,0.0000,0.0000,0.0000,0.0000,0.0000,break_time
47229,-0.1944,0.0671,0.0145,0.2957,1.2145,-9.7549,1.7203,7.0965,172.6959,0.0000,0.0000,0.0000,0.0000,0.0000,break_time
47345,-0.2230,0.0932,-0.0045,0.2873,1.2187,-9.7190,1.7163,7.1013,172.6922,0.0000,0.0000,0.0000,0.0000,0.0000,break_time
47461,-0.2300,0.0743,-0.0331,0.3017,1.2013,-9.7286,1.7209,7.0948,172.6974,0.0000,0.0000,0.0000,0.0000,0.0000,break_time
47577,-0.1760,0.1122,0.0204,0.2664,1.2079,-9.7388,1.7043,7.0921,172.7040,0.0000,0.0000,0.0000,0.0000,0.0000,break_time
47693,-0.2011,0.0742,-0.0308,0.3071,1.2343,-9.7052,1.7136,7.1072,172.6870,0.0000,0.0000,0.0000,0.0000,0.0000,break_time
47809,-0.2210,0.0928,-0.0183,0.2879,1.2229,-9.7256,1.7105,7.1129,172.6823,0.0000,0.0000,0.0000,0.0000,0.0000,break_time
47925,-0.2203,0.0825,0.0755,0.3047,1.2103,-9.7130,1.7177,7.1115,172.6819,0.0000,0.0000,0.0000,0.0000,0.0000,break_time
48041,-0.2230,0.0729,0.0147,0.3101,1.1977,-9.7477,1.7268,7.1005,172.6904,0.0000,0.0000,0.0000,0.0000,0.0000,break_time
48157,-0.2125,0.0962,0.0698,0.3322,1.1995,-9.7238,1.7483,7.0933,172.6923,0.0000,0.0000,0.0000,0.0000,0.0000,break_time
48273,-0.1666,0.0728,-0.0780,0.2957,1.2091,-9.7238,1.7463,7.0925,172.6936,0.0000,0.0000,0.0000,0.0000,0.0000,break_time
48389,-0.2134,0.0723,0.0078,0.3412,1.2402,-9.7160,1.7712,7.1102,172.6703,0.0000,0.0000,0.0000,0.0000,0.0000,break_time
48505,-0.2189,0.0909,-0.0489,0.3107,1.2343,-9.7471,1.7752,7.1205,172.6593,0.0000,0.0000,0.0000,0.0000,0.0000,break_time
48621,-0.2254,0.0792,-0.0863,0.3107,1.2241,-9.7316,1.7791,7.1250,172.6540,0.0000,0.0000,0.0000,0.0000,0.0000,break_time
48737,-0.1710,0.0834,0.1133,0.3047,1.1840,-9.7442,1.7789,7.1050,172.6735,0.0000,0.0000,0.0000,0.0000,0.0000,break_time
48853,-0.2099,0.0768,0.0768,0.3065,1.2181,-9.7046,1.7805,7.1095,172.6687,0.0000,0.0000,0.0000,0.0000,0.0000,break_time
48969,-0.2018,0.0699,0.0072,0.2831,1.2109,-9.7334,1.7678,7.1074,172.6738,0.0000,0.0000,0.0000,0.0000,0.0000,break_time
49085,-0.1919,0.0800,-0.0100,0.3538,1.2474,-9.7418,1.7974,7.1260,172.6486,0.0000,0.0000,0.0000,0.0000,0.0000,break_time
49201,-0.2158,0.0664,-0.0151,0.2951,1.2133,-9.7406,1.7898,7.1231,172.6532,0.0000,0.0000,0.0000,0.0000,0.0000,break_time
49317,-0.2211,0.0564,-0.0391,0.2664,1.2372,-9.7238,1.7665,7.1356,172.6468,0.0000,0.0000,0.0000,0.0000,0.0000,break_time
49433,-0.1970,0.0740,-0.0071,0.2795,1.2205,-9.7459,1.7529,7.1356,172.6501,0.0000,0.0000,0.0000,0.0000,0.0000,nothing
49549,-0.2076,0.0533,0.0110,0.1532,1.2073,-9.7220,1.6673,7.1299,172.6758,0.0000,0.0000,0.0000,0.0000,0.0000,nothing
49665,-0.2221,0.0991,0.0349,0.2891,1.2169,-9.7142,1.6697,7.1306,172.6745,0.0000,0.0000,0.0000,0.0000,0.0000,nothing
49781,-0.2090,0.0905,-0.0025,0.3131,1.2061,-9.7412,1.6854,7.1230,172.6783,0.0000,0.0000,0.0000,0.0000,0.0000,nothing
49897,-0.2094,0.0628,-0.0444,0.2993,1.2211,-9.7160,1.6919,7.1267,172.6732,0.0000,0.0000,0.0000,0.0000,0.0000,nothing
50013,-0.2019,0.0855,-0.0717,0.2933,1.2181,-9.7196,1.6942,7.1280,172.6714,0.0000,0.0000,0.0000,0.0000,0.0000,nothing
50129,-0.1749,0.0536,0.0179,0.3184,1.2151,-9.7316,1.7108,7.1266,172.6689,0.0000,0.0000,0.0000,0.0000,0.0000,nothing
50245,-0.2105,0.1065,-0.0001,0.3017,1.2109,-9.7424,1.7157,7.1221,172.6721,0.0000,0.0000,0.0000,0.0000,0.0000,nothing
50361,-0.1854,0.0502,0.0067,0.3029,1.2361,-9.6975,1.7216,7.1359,172.6573,0.0000,0.0000,0.0000,0.0000,0.0000,nothing
50477,-0.2203,0.0795,0.0128,0.3065,1.2289,-9.7017,1.7289,7.1438,172.6478,0.0000,0.0000,0.0000,0.0000,0.0000,nothing
50593,-0.1914,0.0543,0.0072,0.2873,1.2145,-9.7023,1.7244,7.1426,172.6501,0.0000,0.0000,0.0000,0.0000,0.0000,nothing
50709,-0.2203,0.0908,0.0484,0.3017,1.2211,-9.7130,1.7284,7.1446,172.6472,0.0000,0.0000,0.0000,0.0000,0.0000,nothing
50825,-0.2116,0.0736,-0.0142,0.3274,1.2115,-9.7232,1.7470,7.1400,172.6473,0.0000,0.0000,0.0000,0.0000,0.0000,nothing
50941,-0.1845,0.0534,0.0368,0.3047,1.2091,-9.7011,1.7508,7.1361,172.6501,0.0000,0.0000,0.0000,0.0000,0.0000,nothing
51057,-0.2091,0.0761,0.0105,0.3029,1.2265,-9.7304,1.7526,7.1405,172.6454,0.0000,0.0000,0.0000,0.0000,0.0000,nothing
51173,-0.2099,0.0843,0.0566,0.3214,1.2043,-9.7052,1.7656,7.1335,172.6491,0.0000,0.0000,0.0000,0.0000,0.0000,nothing
51289,-0.2034,0.0637,0.0260,0.3202,1.2187,-9.7358,1.7760,7.1332,172.6468,0.0000,0.0000,0.0000,0.0000,0.0000,nothing
51405,-0.2109,0.0613,-0.0063,0.2927,1.2468,-9.7232,1.7694,7.1503,172.6318,0.0000,0.0000,0.0000,0.0000,0.0000,nothing
51521,-0.2168,0.0793,0.0213,0.3083,1.2504,-9.7370,1.7723,7.1668,172.6151,0.0000,0.0000,0.0000,0.0000,0.0000,nothing
51637,-0.2243,0.0818,0.0417,0.3196,1.2343,-9.7400,1.7816,7.1719,172.6079,0.0000,0.0000,0.0000,0.0000,0.0000,nothing
51753,-0.2350,0.0894,-0.0130,0.2933,1.2139,-9.7501,1.7744,7.1641,172.6172,0.0000,0.0000,0.0000,0.0000,0.0000,nothing
51869,-0.1956,0.0579,0.0080,0.3143,1.2271,-9.7543,1.7800,7.1643,172.6156,0.0000,0.0000,0.0000,0.0000,0.0000,nothing
51985,-0.1986,0.0594,0.0192,0.3466,1.2361,-9.7202,1.8046,7.1721,172.6020,0.0000,0.0000,0.0000,0.0000,0.0000,nothing
52101,-0.2166,0.0802,-0.0285,0.2969,1.2211,-9.7477,1.7972,7.1686,172.6073,0.0000,0.0000,0.0000,0.0000,0.0000,nothing
52217,-0.2147,0.0703,0.0269,0.2861,1.2163,-9.7070,1.7850,7.1656,172.6131,0.0000,0.0000,0.0000,0.0000,0.0000,nothing
52333,-0.2050,0.0859,-0.0085,0.3472,1.2283,-9.7543,1.8088,7.1663,172.6066,0.0000,0.0000,0.0000,0.0000,0.0000,nothing
52449,-0.2304,0.0693,0.0267,0.3053,1.2355,-9.7250,1.8063,7.1733,172.6004,0.0000,0.0000,0.0000,0.0000,0.0000,nothing
52565,-0.2259,0.0825,0.0514,0.2825,1.2115,-9.7070,1.7912,7.1671,172.6102,0.0000,0.0000,0.0000,0.0000,0.0000,nothing
52681,-0.2384,0.0823,-0.0120,0.3172,1.1906,-9.7370,1.7973,7.1472,172.6281,0.0000,0.0000,0.0000,0.0000,0.0000,nothing
52797,-0.2076,0.0693,0.0060,0.2741,1.1882,-9.7370,1.7776,7.1279,172.6516,0.0000,0.0000,0.0000,0.0000,0.0000,nothing
52913,-0.2232,0.0690,0.0777,0.3202,1.2133,-9.7603,1.7864,7.1233,172.6539,0.0000,0.0000,0.0000,0.0000,0.0000,nothing
53029,-0.1925,0.0619,-0.0559,0.3609,1.2372,-9.7501,1.8181,7.1337,172.6359,0.0000,0.0000,0.0000,0.0000,0.0000,nothing
53145,-0.1733,0.0278,0.0314,0.4537,1.2181,-9.7483,1.9009,7.1319,172.6166,0.0000,0.0000,0.0000,0.0000,0.0000,nothing
53261,-0.2045,0.0720,-0.0245,0.3202,1.2031,-9.7148,1.8982,7.1243,172.6246,0.0000,0.0000,0.0000,0.0000,0.0000,nothing
53377,-0.1727,0.0563,-0.0158,0.2622,1.2480,-9.7477,1.8611,7.1413,172.6178,0.0000,0.0000,0.0000,0.0000,0.0000,nothing
53493,-0.1971,0.0877,0.0179,0.3585,1.2492,-9.6861,1.8852,7.1615,172.5921,0.0000,0.0000,0.0000,0.0000,0.0000,nothing
53609,-0.2132,0.0628,-0.0117,0.2765,1.2366,-9.7017,1.8587,7.1714,172.5892,0.0000,0.0000,0.0000,0.0000,0.0000,nothing
53725,-0.2652,0.0601,0.0690,0.3268,1.2289,-9.7118,1.8640,7.1750,172.5844,0.0000,0.0000,0.0000,0.0000,0.0000,nothing
53841,-0.2345,0.0465,-0.0695,0.3358,1.3701,-9.7675,1.8727,7.2560,172.5037,0.0000,0.0000,0.0000,0.0000,0.0000,nothing
53957,-0.2286,0.0660,0.0500,0.3232,1.2426,-9.7358,1.8740,7.2574,172.5020,0.0000,0.0000,0.0000,0.0000,0.0000,nothing
54073,-0.2048,0.0663,-0.0125,0.3244,1.2175,-9.7280,1.8762,7.2446,172.5139,0.0000,0.0000,0.0000,0.0000,0.0000,nothing
54189,-0.2169,0.0703,0.0390,0.2951,1.1798,-9.7226,1.8612,7.2118,172.5495,0.0000,0.0000,0.0000,0.0000,0.0000,nothing
54305,-0.1951,0.0941,-0.0825,0.2969,1.2235,-9.7328,1.8484,7.2067,172.5575,0.0000,0.0000,0.0000,0.0000,0.0000,nothing
54421,-0.2262,0.0847,0.0533,0.3298,1.2169,-9.7214,1.8564,7.1992,172.5629,0.0000,0.0000,0.0000,0.0000,0.0000,nothing
54537,-0.2016,0.0593,0.0739,0.2939,1.1953,-9.7328,1.8424,7.1791,172.5858,0.0000,0.0000,0.0000,0.0000,0.0000,nothing
54653,-0.1628,0.0806,0.0106,0.3304,1.2594,-9.7442,1.8508,7.1973,172.5661,0.0000,0.0000,0.0000,0.0000,0.0000,nothing
54769,-0.2078,0.0660,0.0155,0.3502,1.2313,-9.7172,1.8704,7.1992,172.5593,0.0000,0.0000,0.0000,0.0000,0.0000,nothing
54885,-0.1906,0.0473,0.0258,0.3256,1.2181,-9.7483,1.8732,7.1911,172.5664,0.0000,0.0000,0.0000,0.0000,0.0000,nothing
55001,-0.1772,0.0637,0.0341,0.3226,1.2043,-9.6909,1.8751,7.1801,172.5766,0.0000,0.0000,0.0000,0.0000,0.0000,nothing
55117,-0.1838,0.0870,-0.0316,0.3927,1.1582,-9.7046,1.9176,7.1422,172.6022,0.0000,0.0000,0.0000,0.0000,0.0000,nothing
55233,-0.1708,0.1373,-0.0138,0.4280,1.5605,-9.6478,1.9765,7.3455,172.3904,0.0000,0.0000,0.0000,0.0000,0.0000,error_redo
55349,-0.2469,0.0859,0.0481,0.4382,1.2355,-9.7160,2.0350,7.3349,172.3851,0.0000,0.0000,0.0000,0.0000,0.0000,error_redo
55465,-0.2483,0.0997,0.0427,0.2975,1.1959,-9.7058,2.0058,7.3036,172.4231,0.0000,0.0000,0.0000,0.0000,0.0000,error_redo
55581,-0.1964,0.0573,0.0210,0.2999,1.2277,-9.7023,1.9809,7.2941,172.4389,0.0000,0.0000,0.0000,0.0000,0.0000,error_redo
55697,-0.2255,0.0742,0.0275,0.3633,1.2115,-9.7436,1.9948,7.2729,172.4556,0.0000,0.0000,0.0000,0.0000,0.0000,error_redo
55813,-0.2075,0.0663,-0.0053,0.2664,1.2378,-9.6999,1.9514,7.2726,172.4674,0.0000,0.0000,0.0000,0.0000,0.0000,error_redo
55929,-0.2082,0.0724,-0.0029,0.3478,1.1995,-9.7453,1.9592,7.2466,172.4905,0.0000,0.0000,0.0000,0.0000,0.0000,error_redo
56045,-0.2376,0.0603,-0.0330,0.2957,1.2378,-9.7172,1.9361,7.2475,172.4956,0.0000,0.0000,0.0000,0.0000,0.0000,error_redo
56161,-0.2239,0.0586,0.0466,0.3029,1.2127,-9.7142,1.9197,7.2340,172.5129,0.0000,0.0000,0.0000,0.0000,0.0000,error_redo
56277,-0.2124,0.0988,-0.0278,0.3304,1.2205,-9.7424,1.9205,7.2243,172.5222,0.0000,0.0000,0.0000,0.0000,0.0000,error_redo
56393,-0.1978,0.0699,0.0540,0.3113,1.2295,-9.7519,1.9098,7.2200,172.5291,0.0000,0.0000,0.0000,0.0000,0.0000,error_redo
56509,-0.2012,0.0792,-0.0260,0.2969,1.2217,-9.7358,1.8921,7.2129,172.5405,0.0000,0.0000,0.0000,0.0000,0.0000,error_redo
56625,-0.1880,0.0635,-0.0248,0.3418,1.2037,-9.7651,1.9019,7.1939,172.5564,0.0000,0.0000,0.0000,0.0000,0.0000,error_redo
56741,-0.2075,0.0791,0.0540,0.3328,1.2001,-9.7537,1.9057,7.1755,172.5732,0.0000,0.0000,0.0000,0.0000,0.0000,error_redo
56857,-0.3799,0.1541,0.0522,0.5914,1.6299,-9.8100,2.0576,7.4029,172.3134,0.0000,0.0000,0.0000,0.0000,0.0000,cooldown
56973,-0.3425,0.1291,-0.0354,0.3125,1.2205,-9.7591,2.0338,7.3750,172.3467,0.0000,0.0000,0.0000,0.0000,0.0000,cooldown
57089,-0.2251,0.0619,0.0113,0.3310,1.0768,-9.7872,2.0230,7.2648,172.4559,0.0000,0.0000,0.0000,0.0000,0.0000,cooldown
57205,-0.1524,0.0577,-0.0100,0.2065,1.1355,-9.7388,1.9415,7.2034,172.5368,0.0000,0.0000,0.0000,0.0000,0.0000,cooldown
57321,-0.1547,0.0477,0.0267,0.3747,1.2205,-9.7100,1.9666,7.1990,172.5345,0.0000,0.0000,0.0000,0.0000,0.0000,cooldown
57437,-0.1579,0.0594,-0.0132,0.2921,1.2414,-9.6945,1.9412,7.2085,172.5320,0.0000,0.0000,0.0000,0.0000,0.0000,cooldown
57553,-0.1911,0.0825,0.0380,0.3053,1.2361,-9.7136,1.9257,7.2124,172.5323,0.0000,0.0000,0.0000,0.0000,0.0000,cooldown
57669,-0.2563,0.0716,0.0038,0.3059,1.2229,-9.7418,1.9115,7.2063,172.5418,0.0000,0.0000,0.0000,0.0000,0.0000,cooldown
57785,-0.2018,0.0780,0.0461,0.2568,1.2181,-9.7202,1.8706,7.1998,172.5587,0.0000,0.0000,0.0000,0.0000,0.0000,cooldown
57901,-0.2188,0.0487,-0.0528,0.3280,1.2019,-9.7082,1.8756,7.1852,172.5715,0.0000,0.0000,0.0000,0.0000,0.0000,cooldown
58017,-0.2243,0.0594,0.0286,0.2867,1.2361,-9.7100,1.8558,7.1918,172.5701,0.0000,0.0000,0.0000,0.0000,0.0000,cooldown
58133,-0.1887,0.0818,-0.0333,0.3526,1.2091,-9.7118,1.8765,7.1819,172.5745,0.0000,0.0000,0.0000,0.0000,0.0000,cooldown
58249,-0.2241,0.0868,-0.0037,0.3005,1.2187,-9.7388,1.8642,7.1766,172.5827,0.0000,0.0000,0.0000,0.0000,0.0000,cooldown
58365,-0.2237,0.0543,0.0209,0.2963,1.1918,-9.7298,1.8509,7.1570,172.6051,0.0000,0.0000,0.0000,0.0000,0.0000,cooldown
58481,-0.2056,0.0748,-0.0005,0.2849,1.2187,-9.7406,1.8321,7.1541,172.6127,0.0000,0.0000,0.0000,0.0000,0.0000,cooldown
58597,-0.2319,0.0506,0.0195,0.3286,1.2355,-9.7346,1.8407,7.1616,172.6032,0.0000,0.0000,0.0000,0.0000,0.0000,cooldown
58713,-0.2406,0.0633,0.0420,0.2777,1.2205,-9.7382,1.8187,7.1595,172.6107,0.0000,0.0000,0.0000,0.0000,0.0000,cooldown
58829,-0.2135,0.0785,0.0083,0.2933,1.2145,-9.7280,1.8082,7.1549,172.6178,0.0000,0.0000,0.0000,0.0000,0.0000,cooldown
58945,-0.1872,0.0519,-0.0176,0.3304,1.2361,-9.7406,1.8201,7.1622,172.6078,0.0000,0.0000,0.0000,0.0000,0.0000,cooldown
59061,-0.2322,0.0564,0.0108,0.2969,1.2402,-9.7112,1.8118,7.1734,172.5990,0.0000,0.0000,0.0000,0.0000,0.0000,cooldown
59177,-0.2094,0.1039,-0.0132,0.2694,1.2384,-9.7334,1.7879,7.1809,172.5976,0.0000,0.0000,0.0000,0.0000,0.0000,cooldown
59293,-0.2000,0.0841,0.0367,0.2957,1.2432,-9.7238,1.7819,7.1911,172.5892,0.0000,0.0000,0.0000,0.0000,0.0000,cooldown
59409,-0.2249,0.0697,-0.0296,0.2891,1.2157,-9.7154,1.7728,7.1849,172.5974,0.0000,0.0000,0.0000,0.0000,0.0000,cooldown
59525,-0.2083,0.0703,0.0128,0.3065,1.1930,-9.7340,1.7745,7.1648,172.6165,0.0000,0.0000,0.0000,0.0000,0.0000,cooldown
59641,-0.1628,0.0660,-0.0255,0.2843,1.2444,-9.7046,1.7636,7.1787,172.6056,0.0000,0.0000,0.0000,0.0000,0.0000,cooldown
59757,-0.1864,0.0701,-0.0515,0.3083,1.2103,-9.7274,1.7673,7.1697,172.6134,0.0000,0.0000,0.0000,0.0000,0.0000,cooldown
59873,-0.2273,0.0406,0.0638,0.3083,1.2157,-9.7513,1.7703,7.1630,172.6192,0.0000,0.0000,0.0000,0.0000,0.0000,cooldown
59989,-0.2157,0.0714,0.0027,0.3274,1.1942,-9.6837,1.7854,7.1494,172.6288,0.0000,0.0000,0.0000,0.0000,0.0000,cooldown
60105,-0.1947,0.0836,0.0087,0.3154,1.2444,-9.7011,1.7916,7.1650,172.6121,0.0000,0.0000,0.0000,0.0000,0.0000,cooldown
60221,-0.1855,0.0605,-0.0075,0.3418,1.2055,-9.7507,1.8117,7.1529,172.6189,0.0000,0.0000,0.0000,0.0000,0.0000,cooldown
60337,-0.2142,0.0762,0.0237,0.3322,1.2259,-9.7017,1.8251,7.1573,172.6113,0.0000,0.0000,0.0000,0.0000,0.0000,cooldown
60453,-0.2097,0.0537,0.0346,0.3143,1.2205,-9.7459,1.8258,7.1550,172.6133,0.0000,0.0000,0.0000,0.0000,0.0000,cooldown
60569,-0.1969,0.0780,-0.0089,0.3597,1.2067,-9.6855,1.8542,7.1492,172.6118,0.0000,0.0000,0.0000,0.0000,0.0000,cooldown
60685,-0.2020,0.0832,0.0241,0.2915,1.2199,-9.7256,1.8391,7.1489,172.6159,0.0000,0.0000,0.0000,0.0000,0.0000,cooldown
60801,-0.2108,0.0750,0.0093,0.3310,1.2175,-9.7148,1.8488,7.1480,172.6144,0.0000,0.0000,0.0000,0.0000,0.0000,cooldown
60917,-0.1925,0.0803,0.0372,0.3238,1.3725,-9.7178,1.8530,7.2368,172.5273,0.0000,0.0000,0.0000,0.0000,0.0000,cooldown
61033,-0.2044,0.0823,-0.0649,0.2837,1.2055,-9.6705,1.8345,7.2235,172.5448,0.0000,0.0000,0.0000,0.0000,0.0000,cooldown
61149,-0.2176,0.0553,0.0357,0.3160,1.2085,-9.7382,1.8356,7.2081,172.5594,0.0000,0.0000,0.0000,0.0000,0.0000,cooldown
61265,-0.2080,0.0892,-0.0380,0.2987,1.1953,-9.7244,1.8266,7.1878,172.5814,0.0000,0.0000,0.0000,0.0000,0.0000,cooldown
61381,-0.2113,0.0724,-0.0368,0.3154,1.2013,-9.7172,1.8285,7.1734,172.5948,0.0000,0.0000,0.0000,0.0000,0.0000,cooldown
61497,-0.1997,0.0905,0.0105,0.2879,1.2133,-9.7142,1.8141,7.1677,172.6040,0.0000,0.0000,0.0000,0.0000,0.0000,cooldown
61613,-0.1975,0.0886,0.0065,0.3083,1.2217,-9.7208,1.8129,7.1669,172.6050,0.0000,0.0000,0.0000,0.0000,0.0000,cooldown
61729,-0.1834,0.0804,-0.0026,0.2819,1.2241,-9.7531,1.7958,7.1653,172.6108,0.0000,0.0000,0.0000,0.0000,0.0000,cooldown
61845,-0.2271,0.1061,-0.0555,0.3047,1.2127,-9.7005,1.7948,7.1610,172.6152,0.0000,0.0000,0.0000,0.0000,0.0000,cooldown
61961,-0.2106,0.0919,-0.0057,0.2957,1.2127,-9.7549,1.7876,7.1532,172.6246,0.0000,0.0000,0.0000,0.0000,0.0000,cooldown
62077,-0.2019,0.0686,0.0067,0.3298,1.2223,-9.7304,1.8014,7.1534,172.6209,0.0000,0.0000,0.0000,0.0000,0.0000,cooldown
62193,-0.1988,0.0798,0.0048,0.2903,1.2145,-9.7459,1.7906,7.1481,172.6288,0.0000,0.0000,0.0000,0.0000,0.0000,cooldown
62309,-0.2067,0.0727,-0.0476,0.3526,1.2013,-9.7705,1.8167,7.1338,172.6362,0.0000,0.0000,0.0000,0.0000,0.0000,cooldown
62425,-0.1974,0.0851,0.0170,0.3262,1.2097,-9.7346,1.8255,7.1284,172.6392,0.0000,0.0000,0.0000,0.0000,0.0000,cooldown
62541,-0.1786,0.0795,0.0125,0.3148,1.1942,-9.7555,1.8265,7.1130,172.6539,0.0000,0.0000,0.0000,0.0000,0.0000,cooldown
62657,-0.1925,0.0848,0.0409,0.3250,1.2199,-9.7328,1.8336,7.1157,172.6494,0.0000,0.0000,0.0000,0.0000,0.0000,cooldown
62773,-0.1975,0.0451,-0.0071,0.3113,1.2361,-9.7477,1.8317,7.1265,172.6395,0.0000,0.0000,0.0000,0.0000,0.0000,cooldown
62889,-0.1937,0.0916,0.0435,0.2807,1.1756,-9.7322,1.8126,7.1023,172.6677,0.0000,0.0000,0.0000,0.0000,0.0000,cooldown
63005,-0.1929,0.0908,0.0000,0.3448,1.2253,-9.7465,1.8324,7.1082,172.6571,0.0000,0.0000,0.0000,0.0000,0.0000,cooldown
63121,-0.2176,0.0713,-0.0020,0.3029,1.2187,-9.7459,1.8257,7.1098,172.6572,0.0000,0.0000,0.0000,0.0000,0.0000,cooldown
63237,-0.2183,0.0609,0.0394,0.3502,1.2193,-9.7567,1.8472,7.1107,172.6509,0.0000,0.0000,0.0000,0.0000,0.0000,cooldown
63353,-0.2101,0.0739,-0.0372,0.2903,1.2498,-9.7855,1.8309,7.1273,172.6390,0.0000,0.0000,0.0000,0.0000,0.0000,cooldown
63469,-0.2211,0.0883,0.0237,0.2873,1.1953,-9.7358,1.8156,7.1142,172.6554,0.0000,0.0000,0.0000,0.0000,0.0000,cooldown
63585,-0.2030,0.0503,-0.0356,0.3101,1.2169,-9.7406,1.8150,7.1145,172.6553,0.0000,0.0000,0.0000,0.0000,0.0000,cooldown
63701,-0.2060,0.0818,0.0442,0.2933,1.2319,-9.7064,1.8052,7.1260,172.6466,0.0000,0.0000,0.0000,0.0000,0.0000,cooldown
63817,-0.2144,0.0656,-0.0518,0.2933,1.2235,-9.7376,1.7959,7.1292,172.6458,0.0000,0.0000,0.0000,0.0000,0.0000,cooldown
63933,-0.1989,0.0628,0.0146,0.2825,1.2043,-9.7741,1.7806,7.1184,172.6600,0.0000,0.0000,0.0000,0.0000,0.0000,cooldown
64049,-0.2279,0.0583,-0.0439,0.3364,1.2103,-9.7088,1.7994,7.1168,172.6570,0.0000,0.0000,0.0000,0.0000,0.0000,cooldown
64165,-0.2273,0.0844,0.0109,0.3466,1.2265,-9.7292,1.8218,7.1231,172.6452,0.0000,0.0000,0.0000,0.0000,0.0000,cooldown
64281,-0.1970,0.0822,-0.0177,0.4543,1.2241,-9.7352,1.9048,7.1268,172.6205,0.0000,0.0000,0.0000,0.0000,0.0000,cooldown
64397,-0.2184,0.0962,-0.0292,0.3244,1.2223,-9.7459,1.9035,7.1285,172.6191,0.0000,0.0000,0.0000,0.0000,0.0000,cooldown
64513,-0.2369,0.0768,-0.0218,0.3041,1.2205,-9.7292,1.8908,7.1304,172.6207,0.0000,0.0000,0.0000,0.0000,0.0000,cooldown
64629,-0.2134,0.0695,0.0244,0.2939,1.1983,-9.7531,1.8730,7.1175,172.6377,0.0000,0.0000,0.0000,0.0000,0.0000,cooldown
64745,-0.2003,0.0639,-0.0050,0.3394,1.2253,-9.7292,1.8839,7.1231,172.6295,0.0000,0.0000,0.0000,0.0000,0.0000,cooldown
64861,-0.2014,0.0698,0.1343,0.3388,1.2139,-9.7160,1.8937,7.1225,172.6275,0.0000,0.0000,0.0000,0.0000,0.0000,cooldown
64977,-0.2007,0.1002,-0.0649,0.2909,1.2372,-9.7190,1.8744,7.1354,172.6200,0.0000,0.0000,0.0000,0.0000,0.0000,cooldown
65093,-0.2161,0.0819,0.0204,0.3532,1.2193,-9.7124,1.8935,7.1369,172.6136,0.0000,0.0000,0.0000,0.0000,0.0000,cooldown
65209,-0.2076,0.0837,-0.0106,0.3214,1.2486,-9.7531,1.8914,7.1524,172.5992,0.0000,0.0000,0.0000,0.0000,0.0000,cooldown
65325,-0.2078,0.1057,0.0224,0.2981,1.1995,-9.7442,1.8762,7.1387,172.6164,0.0000,0.0000,0.0000,0.0000,0.0000,cooldown
65441,-0.2315,0.0795,-0.0635,0.3196,1.2378,-9.7334,1.8751,7.1492,172.6065,0.0000,0.0000,0.0000,0.0000,0.0000,cooldown
65557,-0.2106,0.0777,0.0491,0.3059,1.2235,-9.7418,1.8661,7.1497,172.6083,0.0000,0.0000,0.0000,0.0000,0.0000,cooldown
65673,-0.2183,0.0819,-0.0087,0.3154,1.2211,-9.7130,1.8640,7.1509,172.6077,0.0000,0.0000,0.0000,0.0000,0.0000,cooldown
65789,-0.1960,0.0642,-0.0183,0.3274,1.2061,-9.7657,1.8682,7.1395,172.6176,0.0000,0.0000,0.0000,0.0000,0.0000,cooldown
65905,-0.2159,0.0592,0.0449,0.3143,1.1732,-9.7292,1.8651,7.1128,172.6443,0.0000,0.0000,0.0000,0.0000,0.0000,cooldown
66021,-0.1791,0.0541,-0.0117,0.3023,1.2271,-9.7621,1.8545,7.1176,172.6423,0.0000,0.0000,0.0000,0.0000,0.0000,cooldown
66137,-0.1412,0.0592,0.0368,0.3400,1.2325,-9.6807,1.8685,7.1309,172.6259,0.0000,0.0000,0.0000,0.0000,0.0000,cooldown
66253,-0.2090,0.0772,-0.0514,0.2789,1.2229,-9.7136,1.8449,7.1351,172.6279,0.0000,0.0000,0.0000,0.0000,0.0000,cooldown
66369,-0.2038,0.0778,0.0416,0.3262,1.2372,-9.7214,1.8511,7.1464,172.6153,0.0000,0.0000,0.0000,0.0000,0.0000,cooldown
66485,-0.2124,0.0492,0.0354,0.3160,1.2474,-9.6867,1.8513,7.1652,172.5971,0.0000,0.0000,0.0000,0.0000,0.0000,cooldown
66601,-0.1955,0.0684,0.0375,0.2873,1.2271,-9.7178,1.8342,7.1680,172.5987,0.0000,0.0000,0.0000,0.0000,0.0000,cooldown
66717,-0.2072,0.0785,0.0612,0.3250,1.2265,-9.7394,1.8404,7.1685,172.5966,0.0000,0.0000,0.0000,0.0000,0.0000,cooldown
66833,-0.2084,0.0623,-0.0438,0.3023,1.1786,-9.7567,1.8326,7.1401,172.6261,0.0000,0.0000,0.0000,0.0000,0.0000,cooldown
66949,-0.1985,0.0744,-0.0068,0.3232,1.2061,-9.7226,1.8383,7.1329,172.6317,0.0000,0.0000,0.0000,0.0000,0.0000,nothing
67065,-0.2277,0.0620,0.0025,0.2963,1.2211,-9.7645,1.8269,7.1320,172.6353,0.0000,0.0000,0.0000,0.0000,0.0000,nothing
67181,-0.2204,0.0693,0.0010,0.3172,1.2343,-9.7136,1.8297,7.1426,172.6244,0.0000,0.0000,0.0000,0.0000,0.0000,nothing
67297,-0.2080,0.0637,-0.0331,0.2915,1.2349,-9.7388,1.8168,7.1507,172.6198,0.0000,0.0000,0.0000,0.0000,0.0000,nothing
67413,-0.2016,0.0852,0.0428,0.3232,1.2295,-9.7166,1.8242,7.1563,172.6125,0.0000,0.0000,0.0000,0.0000,0.0000,nothing
67529,-0.1943,0.0783,0.0267,0.3196,1.2474,-9.7418,1.8282,7.1700,172.5982,0.0000,0.0000,0.0000,0.0000,0.0000,nothing
67645,-0.2184,0.0731,0.0345,0.1670,1.2187,-9.7160,1.7432,7.1679,172.6210,0.0000,0.0000,0.0000,0.0000,0.0000,nothing
67761,-0.2484,0.0834,-0.0454,0.2885,1.1936,-9.7214,1.7376,7.1508,172.6390,0.0000,0.0000,0.0000,0.0000,0.0000,nothing
67877,-0.2478,0.0585,0.0134,0.3460,1.2319,-9.7154,1.7662,7.1579,172.6252,0.0000,0.0000,0.0000,0.0000,0.0000,nothing
67993,-0.2113,0.1091,-0.0034,0.3053,1.2079,-9.7250,1.7680,7.1498,172.6326,0.0000,0.0000,0.0000,0.0000,0.0000,nothing
68109,-0.2274,0.0766,0.0518,0.3184,1.1995,-9.7699,1.7765,7.1344,172.6456,0.0000,0.0000,0.0000,0.0000,0.0000,nothing
68225,-0.1993,0.0841,0.0315,0.3286,1.2007,-9.7453,1.7905,7.1229,172.6532,0.0000,0.0000,0.0000,0.0000,0.0000,nothing
68341,-0.2037,0.0624,0.0638,0.2670,1.0780,-9.7292,1.7678,7.0428,172.7365,0.0000,0.0000,0.0000,0.0000,0.0000,nothing
68457,-0.2089,0.0491,0.0533,0.3244,1.2187,-9.7340,1.7804,7.0518,172.7247,0.0000,0.0000,0.0000,0.0000,0.0000,nothing
68573,-0.2194,0.0818,0.0087,0.2861,1.2283,-9.7274,1.7695,7.0660,172.7136,0.0000,0.0000,0.0000,0.0000,0.0000,nothing
68689,-0.2083,0.0811,0.0138,0.2933,1.2349,-9.7442,1.7636,7.0813,172.7002,0.0000,0.0000,0.0000,0.0000,0.0000,nothing
68805,-0.2416,0.0598,0.0222,0.2801,1.1828,-9.7178,1.7512,7.0669,172.7172,0.0000,0.0000,0.0000,0.0000,0.0000,nothing
68921,-0.2018,0.1013,-0.0234,0.3364,1.2313,-9.7232,1.7726,7.0815,172.6978,0.0000,0.0000,0.0000,0.0000,0.0000,nothing
69037,-0.2337,0.0664,0.0085,0.2771,1.1989,-9.7591,1.7568,7.0734,172.7095,0.0000,0.0000,0.0000,0.0000,0.0000,nothing
69153,-0.2084,0.0937,0.0333,0.3538,1.2091,-9.7525,1.7873,7.0724,172.7030,0.0000,0.0000,0.0000,0.0000,0.0000,nothing
69269,-0.1791,0.0750,-0.0237,0.2969,1.2055,-9.7112,1.7824,7.0724,172.7042,0.0000,0.0000,0.0000,0.0000,0.0000,nothing
69385,-0.2376,0.0958,0.0702,0.3214,1.1965,-9.7280,1.7920,7.0660,172.7080,0.0000,0.0000,0.0000,0.0000,0.0000,nothing
69501,-0.2383,0.0654,0.0691,0.3005,1.2199,-9.7292,1.7883,7.0738,172.7015,0.0000,0.0000,0.0000,0.0000,0.0000,nothing
69617,-0.1996,0.0552,0.0168,0.2933,1.2091,-9.7843,1.7798,7.0705,172.7067,0.0000,0.0000,0.0000,0.0000,0.0000,nothing
69733,-0.2267,0.0391,0.0012,0.3226,1.2366,-9.7017,1.7908,7.0894,172.6856,0.0000,0.0000,0.0000,0.0000,0.0000,nothing
69849,-0.2042,0.0935,-0.0052,0.3304,1.1900,-9.7322,1.8047,7.0772,172.6940,0.0000,0.0000,0.0000,0.0000,0.0000,nothing
69965,-0.1918,0.0972,-0.0972,0.2861,1.2175,-9.7238,1.7915,7.0829,172.6918,0.0000,0.0000,0.0000,0.0000,0.0000,nothing
70081,-0.2229,0.0477,0.0269,0.3017,1.2007,-9.7436,1.7883,7.0768,172.6985,0.0000,0.0000,0.0000,0.0000,0.0000,nothing
70197,-0.2387,0.0705,-0.0057,0.3238,1.2157,-9.7118,1.7990,7.0822,172.6906,0.0000,0.0000,0.0000,0.0000,0.0000,nothing
70313,-0.2090,0.0727,0.0019,0.2753,1.2109,-9.7519,1.7795,7.0815,172.6961,0.0000,0.0000,0.0000,0.0000,0.0000,nothing
70429,-0.1868,0.1063,0.0168,0.3304,1.2121,-9.7082,1.7950,7.0846,172.6892,0.0000,0.0000,0.0000,0.0000,0.0000,nothing
70546,-0.1760,0.0620,0.0434,0.2622,1.2157,-9.7447,1.7684,7.0870,172.6935,0.0000,0.0000,0.0000,0.0000,0.0000,nothing
70662,-0.1926,0.0844,0.0050,0.3633,1.2061,-9.7364,1.8037,7.0840,172.6877,0.0000,0.0000,0.0000,0.0000,0.0000,nothing
70778,-0.1579,0.0483,0.0198,0.3256,1.2031,-9.7046,1.8140,7.0820,172.6871,0.0000,0.0000,0.0000,0.0000,0.0000,nothing
70894,-0.3022,0.1253,0.0110,0.3274,1.6646,-9.7172,1.8230,7.3465,172.4282,0.0000,0.0000,0.0000,0.0000,0.0000,หนึ่ง
71010,-0.3697,0.1356,0.0541,0.3382,1.2869,-9.7070,1.8385,7.3666,172.4050,0.0000,0.0000,0.0000,0.0000,0.0000,หนึ่ง
71126,-0.3054,0.0818,0.0476,0.2269,1.1289,-9.7765,1.7866,7.2883,172.4936,0.0000,0.0000,0.0000,0.0000,0.0000,หนึ่ง
71242,-0.2315,0.0465,-0.0008,0.3226,1.1385,-9.7597,1.7960,7.2244,172.5534,0.0000,0.0000,0.0000,0.0000,0.0000,หนึ่ง
71358,-0.1708,0.0761,0.0727,0.2586,1.2151,-9.7286,1.7675,7.2136,172.5708,0.0000,0.0000,0.0000,0.0000,0.0000,หนึ่ง
71474,-0.1870,0.0753,-0.0807,0.2712,1.2145,-9.7250,1.7493,7.2039,172.5846,0.0000,0.0000,0.0000,0.0000,0.0000,หนึ่ง
71590,-0.1824,0.0518,0.0181,0.3591,1.1977,-9.7340,1.7840,7.1845,172.5950,0.0000,0.0000,0.0000,0.0000,0.0000,หนึ่ง
71706,-0.2146,0.0656,0.0014,0.3089,1.2229,-9.7196,1.7862,7.1828,172.5962,0.0000,0.0000,0.0000,0.0000,0.0000,หนึ่ง
71822,-0.2187,0.0747,0.0499,0.3334,1.2319,-9.7513,1.8019,7.1841,172.5911,0.0000,0.0000,0.0000,0.0000,0.0000,หนึ่ง
71938,-0.2162,0.0766,0.0005,0.3196,1.2319,-9.7076,1.8088,7.1885,172.5851,0.0000,0.0000,0.0000,0.0000,0.0000,หนึ่ง
72054,-0.1974,0.0630,0.0509,0.2861,1.2582,-9.7364,1.7948,7.2057,172.5719,0.0000,0.0000,0.0000,0.0000,0.0000,หนึ่ง
72170,-0.1880,0.0723,0.0200,0.3023,1.2450,-9.7160,1.7921,7.2150,172.5635,0.0000,0.0000,0.0000,0.0000,0.0000,หนึ่ง
72286,-0.2023,0.0739,0.0840,0.3280,1.1876,-9.7298,1.8046,7.1890,172.5857,0.0000,0.0000,0.0000,0.0000,0.0000,หนึ่ง
72402,-0.1978,0.0872,0.0256,0.3041,1.2325,-9.7202,1.8019,7.1923,172.5831,0.0000,0.0000,0.0000,0.0000,0.0000,หนึ่ง
72518,-0.2384,0.0872,0.0267,0.2867,1.2331,-9.7537,1.7887,7.1933,172.5854,0.0000,0.0000,0.0000,0.0000,0.0000,หนึ่ง
72634,-0.2170,0.0773,-0.0618,0.3166,1.2181,-9.6945,1.7954,7.1898,172.5871,0.0000,0.0000,0.0000,0.0000,0.0000,หนึ่ง
72750,-0.1866,0.0568,0.0770,0.2843,1.2079,-9.7112,1.7823,7.1795,172.6003,0.0000,0.0000,0.0000,0.0000,0.0000,หนึ่ง
72866,-0.1924,0.0748,-0.0115,0.3041,1.2283,-9.7657,1.7810,7.1781,172.6020,0.0000,0.0000,0.0000,0.0000,0.0000,หนึ่ง
72982,-0.2285,0.0653,0.0136,0.3280,1.2217,-9.7226,1.7946,7.1761,172.6006,0.0000,0.0000,0.0000,0.0000,0.0000,หนึ่ง
73098,-0.2093,0.0600,0.0110,0.3328,1.2223,-9.7453,1.8093,7.1729,172.6001,0.0000,0.0000,0.0000,0.0000,0.0000,หนึ่ง
73214,-0.1860,0.0494,-0.0229,0.3190,1.2091,-9.7346,1.8146,7.1633,172.6081,0.0000,0.0000,0.0000,0.0000,0.0000,หนึ่ง
73330,-0.2179,0.0995,-0.0211,0.3208,1.2193,-9.7388,1.8204,7.1602,172.6096,0.0000,0.0000,0.0000,0.0000,0.0000,หนึ่ง
73446,-0.2387,0.0992,-0.0191,0.2897,1.2319,-9.7334,1.8075,7.1652,172.6080,0.0000,0.0000,0.0000,0.0000,0.0000,หนึ่ง
73562,-0.2109,0.0791,0.0429,0.2867,1.1942,-9.7358,1.7942,7.1476,172.6283,0.0000,0.0000,0.0000,0.0000,0.0000,หนึ่ง
73678,-0.2080,0.0671,0.0079,0.3334,1.2366,-9.7328,1.8094,7.1566,172.6159,0.0000,0.0000,0.0000,0.0000,0.0000,หนึ่ง
73794,-0.2245,0.0519,-0.0074,0.3178,1.2073,-9.7286,1.8142,7.1480,172.6231,0.0000,0.0000,0.0000,0.0000,0.0000,หนึ่ง
73910,-0.2124,0.0436,0.0059,0.3196,1.2193,-9.6963,1.8201,7.1495,172.6201,0.0000,0.0000,0.0000,0.0000,0.0000,หนึ่ง
74026,-0.1956,0.0626,-0.0829,0.3071,1.2103,-9.7424,1.8172,7.1424,172.6277,0.0000,0.0000,0.0000,0.0000,0.0000,หนึ่ง
74142,-0.2142,0.0747,-0.0352,0.3202,1.2193,-9.7064,1.8230,7.1437,172.6250,0.0000,0.0000,0.0000,0.0000,0.0000,หนึ่ง
74258,-0.2234,0.0751,-0.0104,0.3352,1.2235,-9.7220,1.8366,7.1462,172.6192,0.0000,0.0000,0.0000,0.0000,0.0000,หนึ่ง
74374,-0.1988,0.0709,-0.0074,0.4549,1.2343,-9.7190,1.9188,7.1546,172.5900,0.0000,0.0000,0.0000,0.0000,0.0000,หนึ่ง
74490,-0.2127,0.0658,0.0146,0.4519,1.2307,-9.6981,1.9914,7.1616,172.5638,0.0000,0.0000,0.0000,0.0000,0.0000,หนึ่ง
74606,-0.2020,0.0671,0.0145,0.1670,1.2390,-9.7376,1.8896,7.1706,172.5820,0.0000,0.0000,0.0000,0.0000,0.0000,หนึ่ง
74722,-0.1779,0.0792,-0.0668,0.3196,1.1942,-9.7280,1.8875,7.1530,172.5996,0.0000,0.0000,0.0000,0.0000,0.0000,หนึ่ง
74838,-0.1947,0.0852,0.0078,0.2957,1.2079,-9.7418,1.8712,7.1442,172.6123,0.0000,0.0000,0.0000,0.0000,0.0000,หนึ่ง
74954,-0.1962,0.0728,-0.0260,0.3083,1.2277,-9.7244,1.8643,7.1490,172.6095,0.0000,0.0000,0.0000,0.0000,0.0000,หนึ่ง
75070,-0.1994,0.0757,0.0870,0.2873,1.2073,-9.7346,1.8456,7.1408,172.6222,0.0000,0.0000,0.0000,0.0000,0.0000,หนึ่ง
75186,-0.2102,0.0806,-0.0793,0.2933,1.2361,-9.7298,1.8323,7.1504,172.6162,0.0000,0.0000,0.0000,0.0000,0.0000,หนึ่ง
75302,-0.2305,0.0758,0.0341,0.3328,1.2169,-9.7196,1.8437,7.1485,172.6151,0.0000,0.0000,0.0000,0.0000,0.0000,หนึ่ง
75418,-0.1868,0.0728,-0.0305,0.3214,1.2151,-9.7316,1.8470,7.1450,172.6177,0.0000,0.0000,0.0000,0.0000,0.0000,หนึ่ง
75534,-0.2098,0.0694,0.0049,0.2987,1.2283,-9.6969,1.8374,7.1521,172.6133,0.0000,0.0000,0.0000,0.0000,0.0000,หนึ่ง
75650,-0.2087,0.0709,0.0318,0.2915,1.2007,-9.7076,1.8244,7.1417,172.6266,0.0000,0.0000,0.0000,0.0000,0.0000,หนึ่ง
75766,-0.1947,0.0800,-0.0229,0.2801,1.1936,-9.7292,1.8056,7.1266,172.6459,0.0000,0.0000,0.0000,0.0000,0.0000,หนึ่ง
75882,-0.2027,0.0693,0.0420,0.3101,1.1900,-9.6879,1.8070,7.1139,172.6579,0.0000,0.0000,0.0000,0.0000,0.0000,หนึ่ง
75998,-0.2018,0.0643,-0.0199,0.3143,1.2115,-9.7400,1.8097,7.1112,172.6599,0.0000,0.0000,0.0000,0.0000,0.0000,หนึ่ง
76114,-0.1791,0.0781,0.0210,0.2987,1.2546,-9.6921,1.8038,7.1372,172.6361,0.0000,0.0000,0.0000,0.0000,0.0000,หนึ่ง
76230,-0.1221,0.0768,0.0765,0.3412,1.1666,-9.6993,1.8234,7.1090,172.6585,0.0000,0.0000,0.0000,0.0000,0.0000,break_time
76346,-0.2994,0.1136,-0.0271,0.3011,1.3875,-9.6645,1.8177,7.2144,172.5578,0.0000,0.0000,0.0000,0.0000,0.0000,break_time
76462,-0.2886,0.1059,0.0697,0.2640,1.2331,-9.7459,1.7898,7.2138,172.5652,0.0000,0.0000,0.0000,0.0000,0.0000,break_time
76578,-0.2530,0.0837,-0.0055,0.2269,1.1876,-9.7023,1.7439,7.1901,172.5992,0.0000,0.0000,0.0000,0.0000,0.0000,break_time
76694,-0.2102,0.0728,-0.0100,0.3753,1.2157,-9.7280,1.7888,7.1829,172.5954,0.0000,0.0000,0.0000,0.0000,0.0000,break_time
76810,-0.2215,0.0616,-0.0045,0.2688,1.2055,-9.7477,1.7666,7.1693,172.6140,0.0000,0.0000,0.0000,0.0000,0.0000,break_time
76926,-0.1911,0.0833,-0.0200,0.2999,1.2127,-9.7370,1.7650,7.1620,172.6215,0.0000,0.0000,0.0000,0.0000,0.0000,break_time
77042,-0.2146,0.0436,0.0673,0.3071,1.2432,-9.7477,1.7675,7.1723,172.6109,0.0000,0.0000,0.0000,0.0000,0.0000,break_time
77158,-0.1973,0.0736,0.0221,0.3184,1.2271,-9.7286,1.7767,7.1736,172.6074,0.0000,0.0000,0.0000,0.0000,0.0000,break_time
77274,-0.2113,0.0754,-0.0379,0.3029,1.2097,-9.7268,1.7760,7.1648,172.6161,0.0000,0.0000,0.0000,0.0000,0.0000,break_time
77390,-0.2134,0.0279,0.0110,0.3017,1.2007,-9.7334,1.7746,7.1513,172.6296,0.0000,0.0000,0.0000,0.0000,0.0000,break_time
77506,-0.2105,0.0885,0.0315,0.2873,1.2372,-9.7687,1.7643,7.1577,172.6259,0.0000,0.0000,0.0000,0.0000,0.0000,break_time
77622,-0.1948,0.0757,-0.0673,0.3125,1.2169,-9.7370,1.7702,7.1539,172.6281,0.0000,0.0000,0.0000,0.0000,0.0000,break_time
77738,-0.1870,0.0241,-0.0075,0.3208,1.2109,-9.7178,1.7808,7.1484,172.6308,0.0000,0.0000,0.0000,0.0000,0.0000,break_time
77854,-0.2018,0.0683,0.0466,0.3107,1.2384,-9.7070,1.7846,7.1603,172.6184,0.0000,0.0000,0.0000,0.0000,0.0000,break_time
77970,-0.2267,0.0615,0.0082,0.3442,1.2516,-9.7549,1.8066,7.1750,172.5987,0.0000,0.0000,0.0000,0.0000,0.0000,break_time
78086,-0.1888,0.1010,0.0289,0.3047,1.2235,-9.7244,1.8040,7.1742,172.6001,0.0000,0.0000,0.0000,0.0000,0.0000,break_time
78202,-0.2014,0.0703,0.0514,0.3178,1.2229,-9.7597,1.8087,7.1706,172.6025,0.0000,0.0000,0.0000,0.0000,0.0000,break_time
78318,-0.1898,0.0837,0.0015,0.2849,1.2253,-9.7627,1.7936,7.1686,172.6081,0.0000,0.0000,0.0000,0.0000,0.0000,break_time
78434,-0.1919,0.1005,0.0090,0.3436,1.2199,-9.7136,1.8152,7.1671,172.6042,0.0000,0.0000,0.0000,0.0000,0.0000,break_time
78550,-0.2173,0.0604,0.0275,0.3023,1.2193,-9.7507,1.8099,7.1628,172.6097,0.0000,0.0000,0.0000,0.0000,0.0000,break_time
78666,-0.1723,0.0784,0.0495,0.3143,1.2115,-9.7274,1.8125,7.1561,172.6156,0.0000,0.0000,0.0000,0.0000,0.0000,break_time
78782,-0.2065,0.0601,0.0322,0.2789,1.2019,-9.7184,1.7945,7.1453,172.6306,0.0000,0.0000,0.0000,0.0000,0.0000,break_time
78898,-0.2074,0.0807,-0.0946,0.2975,1.1876,-9.7196,1.7890,7.1271,172.6496,0.0000,0.0000,0.0000,0.0000,0.0000,break_time
79014,-0.2101,0.0843,0.0541,0.3454,1.2355,-9.7489,1.8115,7.1362,172.6352,0.0000,0.0000,0.0000,0.0000,0.0000,break_time
79130,-0.2035,0.0727,-0.0101,0.3154,1.1906,-9.6897,1.8154,7.1227,172.6472,0.0000,0.0000,0.0000,0.0000,0.0000,nothing
79246,-0.1809,0.0465,0.0613,0.2610,1.2546,-9.7555,1.7857,7.1431,172.6348,0.0000,0.0000,0.0000,0.0000,0.0000,nothing
79362,-0.1786,0.0638,0.0188,0.2987,1.1959,-9.7280,1.7817,7.1293,172.6492,0.0000,0.0000,0.0000,0.0000,0.0000,nothing
79478,-0.2112,0.0299,0.0496,0.3717,1.2319,-9.7471,1.8203,7.1362,172.6330,0.0000,0.0000,0.0000,0.0000,0.0000,nothing
79594,-0.3705,0.0384,0.0121,0.2221,0.9134,-9.7777,1.7678,6.9560,172.8207,0.0000,0.0000,0.0000,0.0000,0.0000,สอง
79710,-0.1125,0.0267,-0.0174,0.3538,1.0559,-9.7849,1.7970,6.8757,172.8912,0.0000,0.0000,0.0000,0.0000,0.0000,สอง
79826,-0.0915,0.0739,-0.0204,0.2634,1.1744,-9.7663,1.7706,6.8736,172.8999,0.0000,0.0000,0.0000,0.0000,0.0000,สอง
79942,-0.1329,0.0438,-0.0090,0.3448,1.2480,-9.6981,1.7954,6.9189,172.8497,0.0000,0.0000,0.0000,0.0000,0.0000,สอง
80058,-0.1789,0.1012,-0.0050,0.3208,1.2444,-9.7286,1.8033,6.9556,172.8123,0.0000,0.0000,0.0000,0.0000,0.0000,สอง
80174,-0.2266,0.0615,-0.0378,0.2909,1.2708,-9.7142,1.7930,7.0049,172.7670,0.0000,0.0000,0.0000,0.0000,0.0000,สอง
80290,-0.2367,0.0919,0.0390,0.3556,1.2295,-9.6975,1.8220,7.0264,172.7389,0.0000,0.0000,0.0000,0.0000,0.0000,สอง
80406,-0.2185,0.0643,-0.0217,0.2969,1.2259,-9.7394,1.8130,7.0409,172.7272,0.0000,0.0000,0.0000,0.0000,0.0000,สอง
80522,-0.2039,0.0860,-0.0273,0.3472,1.2331,-9.7459,1.8341,7.0574,172.7058,0.0000,0.0000,0.0000,0.0000,0.0000,สอง
80638,-0.1986,0.0398,-0.0108,0.3035,1.2235,-9.7070,1.8284,7.0697,172.6954,0.0000,0.0000,0.0000,0.0000,0.0000,สอง
80754,-0.1635,0.0736,-0.0538,0.3687,1.2037,-9.7160,1.8612,7.0685,172.6882,0.0000,0.0000,0.0000,0.0000,0.0000,สอง
80870,-0.2089,0.0714,-0.0112,0.2759,1.2205,-9.6975,1.8369,7.0786,172.6845,0.0000,0.0000,0.0000,0.0000,0.0000,สอง
80986,-0.2108,0.1009,0.0912,0.2544,1.2349,-9.7124,1.8021,7.0951,172.6774,0.0000,0.0000,0.0000,0.0000,0.0000,สอง
81102,-0.2109,0.0586,-0.0667,0.3137,1.2295,-9.7274,1.8051,7.1056,172.6664,0.0000,0.0000,0.0000,0.0000,0.0000,สอง
81218,-0.2140,0.0889,0.0016,0.2789,1.2480,-9.7322,1.7874,7.1255,172.6515,0.0000,0.0000,0.0000,0.0000,0.0000,สอง
81334,-0.2254,0.0818,-0.0195,0.3107,1.2331,-9.7250,1.7902,7.1352,172.6414,0.0000,0.0000,0.0000,0.0000,0.0000,สอง
81450,-0.2095,0.0807,0.0271,0.2777,1.2420,-9.7292,1.7733,7.1489,172.6322,0.0000,0.0000,0.0000,0.0000,0.0000,สอง
81566,-0.2060,0.0548,-0.0011,0.3148,1.2139,-9.7436,1.7797,7.1438,172.6356,0.0000,0.0000,0.0000,0.0000,0.0000,สอง
81682,-0.2072,0.0518,0.0145,0.2951,1.2247,-9.7304,1.7741,7.1465,172.6344,0.0000,0.0000,0.0000,0.0000,0.0000,สอง
81798,-0.2143,0.0634,0.0169,0.2837,1.2103,-9.7459,1.7621,7.1394,172.6441,0.0000,0.0000,0.0000,0.0000,0.0000,สอง
81914,-0.2089,0.0690,-0.0018,0.1736,1.2061,-9.7292,1.6874,7.1321,172.6690,0.0000,0.0000,0.0000,0.0000,0.0000,สอง
82030,-0.2068,0.0581,-0.0117,0.2783,1.1983,-9.7579,1.6808,7.1187,172.6835,0.0000,0.0000,0.0000,0.0000,0.0000,สอง
82146,-0.1992,0.1035,0.0461,0.3053,1.1947,-9.7118,1.6914,7.1079,172.6917,0.0000,0.0000,0.0000,0.0000,0.0000,สอง
82262,-0.2116,0.0787,0.0010,0.3304,1.2157,-9.7525,1.7149,7.1072,172.6867,0.0000,0.0000,0.0000,0.0000,0.0000,สอง
82378,-0.2090,0.0736,-0.0480,0.3178,1.2193,-9.7023,1.7295,7.1124,172.6782,0.0000,0.0000,0.0000,0.0000,0.0000,สอง
82494,-0.1914,0.0728,0.0157,0.2987,1.2390,-9.7292,1.7310,7.1266,172.6641,0.0000,0.0000,0.0000,0.0000,0.0000,สอง
82610,-0.2307,0.0830,0.0307,0.3113,1.2043,-9.7100,1.7401,7.1206,172.6677,0.0000,0.0000,0.0000,0.0000,0.0000,สอง
82726,-0.2069,0.0594,0.0185,0.2658,1.2169,-9.7232,1.7214,7.1217,172.6711,0.0000,0.0000,0.0000,0.0000,0.0000,สอง
82842,-0.2102,0.1160,0.0172,0.3508,1.2259,-9.7011,1.7547,7.1292,172.6558,0.0000,0.0000,0.0000,0.0000,0.0000,สอง
82958,-0.2097,0.0742,-0.0611,0.3065,1.2444,-9.7190,1.7583,7.1456,172.6391,0.0000,0.0000,0.0000,0.0000,0.0000,สอง
83074,-0.2095,0.0607,-0.0364,0.3089,1.2079,-9.7028,1.7634,7.1403,172.6429,0.0000,0.0000,0.0000,0.0000,0.0000,สอง
83190,-0.2125,0.0549,0.0199,0.3119,1.2253,-9.7160,1.7695,7.1447,172.6373,0.0000,0.0000,0.0000,0.0000,0.0000,สอง
83306,-0.2268,0.0657,0.0140,0.2676,1.2456,-9.6879,1.7495,7.1625,172.6247,0.0000,0.0000,0.0000,0.0000,0.0000,สอง
83422,-0.2164,0.0759,0.0270,0.3131,1.2307,-9.7382,1.7572,7.1662,172.6193,0.0000,0.0000,0.0000,0.0000,0.0000,สอง
83538,-0.2185,0.0607,-0.0055,0.3154,1.2091,-9.7394,1.7656,7.1569,172.6263,0.0000,0.0000,0.0000,0.0000,0.0000,สอง
83654,-0.2249,0.0761,0.0060,0.2765,1.2349,-9.7011,1.7511,7.1663,172.6207,0.0000,0.0000,0.0000,0.0000,0.0000,สอง
83770,-0.1890,0.0686,0.0136,0.3041,1.2037,-9.7202,1.7538,7.1553,172.6307,0.0000,0.0000,0.0000,0.0000,0.0000,สอง
83886,-0.1870,0.0714,0.0236,0.2915,1.2007,-9.7316,1.7487,7.1428,172.6441,0.0000,0.0000,0.0000,0.0000,0.0000,สอง
84002,-0.1997,0.0611,-0.0029,0.3298,1.1810,-9.6957,1.7672,7.1227,172.6592,0.0000,0.0000,0.0000,0.0000,0.0000,สอง
84118,-0.2079,0.0787,0.0378,0.3244,1.2013,-9.6999,1.7805,7.1160,172.6624,0.0000,0.0000,0.0000,0.0000,0.0000,สอง
84234,-0.1812,0.0807,-0.0423,0.3035,1.2181,-9.7202,1.7799,7.1184,172.6602,0.0000,0.0000,0.0000,0.0000,0.0000,สอง
84350,-0.1945,0.0648,-0.0029,0.3172,1.2013,-9.7298,1.7873,7.1100,172.6665,0.0000,0.0000,0.0000,0.0000,0.0000,สอง
84466,-0.2052,0.0541,0.0124,0.2658,1.2199,-9.7058,1.7642,7.1151,172.6672,0.0000,0.0000,0.0000,0.0000,0.0000,สอง
84582,-0.2029,0.0697,0.0123,0.3011,1.2115,-9.7585,1.7632,7.1110,172.6715,0.0000,0.0000,0.0000,0.0000,0.0000,สอง
84698,-0.2270,0.0781,-0.0323,0.3274,1.2271,-9.7388,1.7779,7.1176,172.6615,0.0000,0.0000,0.0000,0.0000,0.0000,สอง
84814,-0.2116,0.0678,0.0638,0.3041,1.2534,-9.7555,1.7772,7.1377,172.6421,0.0000,0.0000,0.0000,0.0000,0.0000,สอง
84930,-0.1934,0.0665,-0.0113,0.4118,1.2097,-9.7250,1.8401,7.1324,172.6316,0.0000,0.0000,0.0000,0.0000,0.0000,สอง
85046,-0.1966,0.0807,0.0113,0.3520,1.3534,-9.7184,1.8616,7.2115,172.5496,0.0000,0.0000,0.0000,0.0000,0.0000,nothing
85162,-0.2766,0.0994,0.0014,0.3861,1.2307,-9.7292,1.9009,7.2108,172.5403,0.0000,0.0000,0.0000,0.0000,0.0000,nothing
85278,-0.2379,0.0800,-0.0320,0.2442,1.2043,-9.7483,1.8532,7.1937,172.5690,0.0000,0.0000,0.0000,0.0000,0.0000,nothing
85394,-0.1943,0.0909,-0.0072,0.2209,1.1750,-9.7244,1.7971,7.1632,172.6125,0.0000,0.0000,0.0000,0.0000,0.0000,nothing
85510,-0.2061,0.0714,0.0335,0.3825,1.1630,-9.7328,1.8408,7.1278,172.6359,0.0000,0.0000,0.0000,0.0000,0.0000,nothing
85626,-0.2188,0.0375,0.0020,0.2310,1.2456,-9.7274,1.7917,7.1446,172.6319,0.0000,0.0000,0.0000,0.0000,0.0000,nothing
85742,-0.1849,0.0818,-0.0676,0.3651,1.2319,-9.7208,1.8259,7.1519,172.6164,0.0000,0.0000,0.0000,0.0000,0.0000,nothing
85858,-0.1851,0.0609,0.0154,0.2975,1.2097,-9.7214,1.8173,7.1457,172.6245,0.0000,0.0000,0.0000,0.0000,0.0000,nothing
85974,-0.2191,0.0656,-0.0065,0.3358,1.2079,-9.7322,1.8317,7.1382,172.6282,0.0000,0.0000,0.0000,0.0000,0.0000,nothing
86090,-0.2219,0.0847,-0.0494,0.3053,1.2145,-9.7651,1.8262,7.1330,172.6346,0.0000,0.0000,0.0000,0.0000,0.0000,nothing
86206,-0.2029,0.0843,0.0394,0.2801,1.2175,-9.7286,1.8072,7.1327,172.6396,0.0000,0.0000,0.0000,0.0000,0.0000,nothing
86322,-0.2018,0.0605,-0.0695,0.3358,1.2259,-9.7513,1.8222,7.1356,172.6331,0.0000,0.0000,0.0000,0.0000,0.0000,nothing
86438,-0.2200,0.0571,0.0209,0.2640,1.2223,-9.7274,1.7943,7.1379,172.6377,0.0000,0.0000,0.0000,0.0000,0.0000,nothing
86554,-0.2054,0.0808,-0.0350,0.3502,1.1942,-9.7238,1.8195,7.1238,172.6451,0.0000,0.0000,0.0000,0.0000,0.0000,nothing
86670,-0.2094,0.0848,0.0668,0.3436,1.1876,-9.7178,1.8385,7.1078,172.6559,0.0000,0.0000,0.0000,0.0000,0.0000,nothing
86786,-0.1838,0.0793,-0.0041,0.3226,1.2061,-9.7046,1.8436,7.1051,172.6572,0.0000,0.0000,0.0000,0.0000,0.0000,หนึ่ง
86902,-0.2162,0.0688,-0.0363,0.3041,1.2031,-9.7495,1.8365,7.0977,172.6662,0.0000,0.0000,0.0000,0.0000,0.0000,หนึ่ง
87018,-0.1970,0.0684,0.0544,0.3184,1.2708,-9.7328,1.8387,7.1315,172.6329,0.0000,0.0000,0.0000,0.0000,0.0000,หนึ่ง
87134,-0.2151,0.0837,-0.0357,0.2837,1.2390,-9.7388,1.8204,7.1431,172.6263,0.0000,0.0000,0.0000,0.0000,0.0000,หนึ่ง
87250,-0.2293,0.0844,0.0556,0.3454,1.2396,-9.7028,1.8405,7.1564,172.6083,0.0000,0.0000,0.0000,0.0000,0.0000,หนึ่ง
87366,-0.1949,0.0648,-0.0174,0.2957,1.2295,-9.7280,1.8292,7.1607,172.6070,0.0000,0.0000,0.0000,0.0000,0.0000,หนึ่ง
87482,-0.2011,0.0832,0.0408,0.3196,1.2151,-9.7017,1.8335,7.1582,172.6084,0.0000,0.0000,0.0000,0.0000,0.0000,หนึ่ง
87598,-0.2367,0.0568,0.0015,0.3059,1.2229,-9.7094,1.8292,7.1598,172.6078,0.0000,0.0000,0.0000,0.0000,0.0000,หนึ่ง
87714,-0.2210,0.0616,-0.0192,0.2987,1.2343,-9.7298,1.8207,7.1665,172.6035,0.0000,0.0000,0.0000,0.0000,0.0000,หนึ่ง
87830,-0.2033,0.0618,0.0502,0.3376,1.2031,-9.7232,1.8360,7.1548,172.6110,0.0000,0.0000,0.0000,0.0000,0.0000,หนึ่ง
87946,-0.2142,0.0667,-0.0067,0.3418,1.2618,-9.7142,1.8522,7.1789,172.5835,0.0000,0.0000,0.0000,0.0000,0.0000,หนึ่ง
88062,-0.2237,0.0858,0.0414,0.2873,1.2378,-9.7274,1.8348,7.1859,172.5811,0.0000,0.0000,0.0000,0.0000,0.0000,หนึ่ง
88178,-0.1932,0.0822,-0.0421,0.3268,1.2372,-9.7058,1.8426,7.1934,172.5719,0.0000,0.0000,0.0000,0.0000,0.0000,หนึ่ง
88294,-0.2338,0.0753,-0.0638,0.2789,1.2067,-9.7190,1.8215,7.1815,172.5887,0.0000,0.0000,0.0000,0.0000,0.0000,หนึ่ง
88410,-0.2330,0.0664,0.0243,0.3053,1.2319,-9.7286,1.8177,7.1847,172.5866,0.0000,0.0000,0.0000,0.0000,0.0000,หนึ่ง
88526,-0.1880,0.0979,-0.0671,0.3005,1.1229,-9.7364,1.8115,7.1238,172.6472,0.0000,0.0000,0.0000,0.0000,0.0000,break_time
88642,-0.1656,0.0724,0.0041,0.3597,1.2785,-9.7364,1.8402,7.1591,172.6058,0.0000,0.0000,0.0000,0.0000,0.0000,break_time
88758,-0.1975,0.0562,0.0892,0.3166,1.2486,-9.7208,1.8412,7.1748,172.5903,0.0000,0.0000,0.0000,0.0000,0.0000,break_time
88874,-0.2218,0.0552,-0.0258,0.3154,1.2803,-9.7262,1.8413,7.2068,172.5592,0.0000,0.0000,0.0000,0.0000,0.0000,break_time
88990,-0.2521,0.0577,-0.0106,0.1652,1.2061,-9.7160,1.7540,7.1938,172.5933,0.0000,0.0000,0.0000,0.0000,0.0000,break_time
89106,-0.2343,0.0754,-0.0142,0.2885,1.2265,-9.7244,1.7472,7.1929,172.5957,0.0000,0.0000,0.0000,0.0000,0.0000,break_time
89222,-0.2048,0.0870,0.0318,0.3490,1.2247,-9.7567,1.7758,7.1886,172.5930,0.0000,0.0000,0.0000,0.0000,0.0000,break_time
89338,-0.2082,0.0829,0.0476,0.2807,1.2337,-9.7334,1.7621,7.1918,172.5932,0.0000,0.0000,0.0000,0.0000,0.0000,break_time
89454,-0.2346,0.0833,-0.0316,0.2885,1.2307,-9.7220,1.7545,7.1938,172.5932,0.0000,0.0000,0.0000,0.0000,0.0000,break_time
89570,-0.2348,0.0928,-0.0050,0.3011,1.1738,-9.7232,1.7552,7.1624,172.6234,0.0000,0.0000,0.0000,0.0000,0.0000,break_time
89686,-0.1999,0.0628,0.0480,0.3238,1.0798,-9.7537,1.7687,7.0775,172.7026,0.0000,0.0000,0.0000,0.0000,0.0000,break_time
89802,-0.1854,0.0732,0.0071,0.3148,1.2378,-9.6951,1.7763,7.0969,172.6819,0.0000,0.0000,0.0000,0.0000,0.0000,break_time
89918,-0.2048,0.0612,0.0303,0.3119,1.2606,-9.7274,1.7808,7.1253,172.6533,0.0000,0.0000,0.0000,0.0000,0.0000,break_time
90034,-0.2072,0.0819,0.0747,0.2861,1.2241,-9.7376,1.7697,7.1289,172.6525,0.0000,0.0000,0.0000,0.0000,0.0000,break_time
90150,-0.2279,0.0788,0.0078,0.3119,1.2043,-9.7801,1.7740,7.1177,172.6624,0.0000,0.0000,0.0000,0.0000,0.0000,break_time
90266,-0.2151,0.0534,-0.0774,0.2921,1.2043,-9.7298,1.7673,7.1112,172.6703,0.0000,0.0000,0.0000,0.0000,0.0000,break_time
90382,-0.1865,0.0634,-0.0449,0.2939,1.2115,-9.7501,1.7619,7.1080,172.6747,0.0000,0.0000,0.0000,0.0000,0.0000,break_time
90498,-0.1896,0.0808,-0.0823,0.3202,1.2175,-9.7112,1.7731,7.1114,172.6686,0.0000,0.0000,0.0000,0.0000,0.0000,break_time
90614,-0.2113,0.0747,0.0743,0.2843,1.2181,-9.7028,1.7623,7.1155,172.6673,0.0000,0.0000,0.0000,0.0000,0.0000,break_time
90730,-0.2292,0.0586,-0.0297,0.2825,1.2097,-9.7400,1.7510,7.1117,172.6738,0.0000,0.0000,0.0000,0.0000,0.0000,break_time
90846,-0.2056,0.0657,0.0243,0.3376,1.1965,-9.7543,1.7727,7.0994,172.6804,0.0000,0.0000,0.0000,0.0000,0.0000,break_time
90962,-0.2086,0.0766,-0.0174,0.2765,1.2193,-9.7028,1.7574,7.1054,172.6783,0.0000,0.0000,0.0000,0.0000,0.0000,break_time
91078,-0.1554,0.0649,-0.0016,0.2855,1.2091,-9.6873,1.7492,7.1060,172.6797,0.0000,0.0000,0.0000,0.0000,0.0000,break_time
91194,-0.2090,0.0849,-0.0401,0.3238,1.2384,-9.7436,1.7632,7.1194,172.6633,0.0000,0.0000,0.0000,0.0000,0.0000,break_time
91310,-0.2323,0.0931,-0.0245,0.3059,1.2319,-9.7340,1.7654,7.1284,172.6540,0.0000,0.0000,0.0000,0.0000,0.0000,break_time
91426,-0.2304,0.0774,-0.0225,0.3184,1.2546,-9.7292,1.7748,7.1500,172.6308,0.0000,0.0000,0.0000,0.0000,0.0000,break_time
91542,-0.2213,0.0901,0.0172,0.2855,1.2139,-9.7154,1.7644,7.1469,172.6364,0.0000,0.0000,0.0000,0.0000,0.0000,nothing
91658,-0.2033,0.0988,-0.0525,0.2676,1.1977,-9.7669,1.7436,7.1310,172.6568,0.0000,0.0000,0.0000,0.0000,0.0000,nothing
91774,-0.2132,0.0678,0.0131,0.3346,1.1995,-9.7687,1.7640,7.1175,172.6649,0.0000,0.0000,0.0000,0.0000,0.0000,nothing
91890,-0.2094,0.0863,-0.0447,0.3041,1.2037,-9.7430,1.7651,7.1097,172.6723,0.0000,0.0000,0.0000,0.0000,0.0000,nothing
92006,-0.1840,0.0787,-0.0240,0.2975,1.2462,-9.7292,1.7623,7.1284,172.6548,0.0000,0.0000,0.0000,0.0000,0.0000,nothing
92122,-0.2170,0.0708,0.0174,0.2969,1.2301,-9.7412,1.7592,7.1349,172.6492,0.0000,0.0000,0.0000,0.0000,0.0000,nothing
92238,-0.1951,0.0634,0.0154,0.3095,1.2259,-9.7196,1.7642,7.1399,172.6432,0.0000,0.0000,0.0000,0.0000,0.0000,nothing
92354,-0.1941,0.0814,0.0097,0.2879,1.1953,-9.7986,1.7548,7.1210,172.6638,0.0000,0.0000,0.0000,0.0000,0.0000,nothing
92470,-0.2195,0.0847,-0.0080,0.2915,1.2223,-9.7843,1.7487,7.1207,172.6656,0.0000,0.0000,0.0000,0.0000,0.0000,nothing
92586,-0.2065,0.0577,-0.0151,0.2789,1.2301,-9.7286,1.7367,7.1289,172.6604,0.0000,0.0000,0.0000,0.0000,0.0000,nothing
92702,-0.1684,0.0920,0.1145,0.2783,1.2283,-9.7436,1.7254,7.1342,172.6580,0.0000,0.0000,0.0000,0.0000,0.0000,nothing
92818,-0.2093,0.0819,-0.0228,0.2987,1.2265,-9.7358,1.7272,7.1385,172.6534,0.0000,0.0000,0.0000,0.0000,0.0000,nothing
92934,-0.1990,0.0650,-0.0359,0.3328,1.2498,-9.7124,1.7491,7.1574,172.6298,0.0000,0.0000,0.0000,0.0000,0.0000,nothing
93050,-0.2084,0.0744,-0.1291,0.3131,1.2642,-9.7046,1.7574,7.1834,172.6025,0.0000,0.0000,0.0000,0.0000,0.0000,nothing
93166,-0.2069,0.0990,0.1411,0.2598,1.2989,-9.7208,1.7334,7.2259,172.5670,0.0000,0.0000,0.0000,0.0000,0.0000,nothing
93282,-0.2283,0.1207,0.0142,0.4160,1.2355,-9.7172,1.8032,7.2272,172.5489,0.0000,0.0000,0.0000,0.0000,0.0000,nothing
