timestamp_ms,gyro_x,gyro_y,gyro_z,accel_x,accel_y,accel_z,roll,pitch,yaw,adc0,adc1,adc2,adc3,adc4,Label
15212,-0.1910,0.0342,0.0192,0.3364,1.2343,-9.7388,1.8555,7.0953,172.6637,0.0000,0.0000,0.0000,0.0000,0.0000,nothing
15328,-0.1765,0.0811,-0.0969,0.3364,1.2594,-9.7489,1.8659,7.1215,172.6357,0.0000,0.0000,0.0000,0.0000,0.0000,nothing
15444,-0.1918,0.0521,0.0087,0.3562,1.1858,-9.7100,1.8878,7.1051,172.6458,0.0000,0.0000,0.0000,0.0000,0.0000,nothing
15560,-0.1755,0.0725,-0.0695,0.3963,1.3342,-9.6568,1.9316,7.1802,172.5618,0.0000,0.0000,0.0000,0.0000,0.0000,หนึ่ง
15676,-0.2972,0.1594,0.0578,0.2813,1.1115,-9.7567,1.9025,7.1118,172.6356,0.0000,0.0000,0.0000,0.0000,0.0000,หนึ่ง
15792,-0.1370,0.0436,-0.0446,0.2933,1.0289,-9.7825,1.8830,7.0005,172.7482,0.0000,0.0000,0.0000,0.0000,0.0000,หนึ่ง
15908,-0.1016,0.0353,0.0015,0.2777,1.1564,-9.7286,1.8571,6.9781,172.7766,0.0000,0.0000,0.0000,0.0000,0.0000,หนึ่ง
16024,-0.1311,0.0538,0.0179,0.3502,1.2390,-9.7459,1.8756,7.0044,172.7464,0.0000,0.0000,0.0000,0.0000,0.0000,หนึ่ง
16140,-0.1648,0.0672,0.0252,0.2993,1.2564,-9.7298,1.8628,7.0394,172.7159,0.0000,0.0000,0.0000,0.0000,0.0000,หนึ่ง
16256,-0.1887,0.0717,-0.0128,0.3244,1.2612,-9.7322,1.8658,7.0735,172.6822,0.0000,0.0000,0.0000,0.0000,0.0000,หนึ่ง
16372,-0.2267,0.0754,-0.0108,0.3334,1.2522,-9.7328,1.8738,7.0988,172.6555,0.0000,0.0000,0.0000,0.0000,0.0000,หนึ่ง
16488,-0.2515,0.0806,0.0977,0.3065,1.1924,-9.7370,1.8654,7.0868,172.6694,0.0000,0.0000,0.0000,0.0000,0.0000,หนึ่ง
16604,-0.2142,0.0716,-0.0476,0.3406,1.2181,-9.7591,1.8772,7.0891,172.6640,0.0000,0.0000,0.0000,0.0000,0.0000,หนึ่ง
16720,-0.2232,0.0960,-0.0020,0.3274,1.1756,-9.7388,1.8807,7.0681,172.6835,0.0000,0.0000,0.0000,0.0000,0.0000,หนึ่ง
16836,-0.1842,0.0650,0.0432,0.4489,1.1953,-9.7783,1.9538,7.0576,172.6743,0.0000,0.0000,0.0000,0.0000,0.0000,หนึ่ง
16952,-0.1755,0.0769,-0.0109,0.3316,1.2289,-9.7023,1.9527,7.0732,172.6596,0.0000,0.0000,0.0000,0.0000,0.0000,หนึ่ง
17068,-0.2027,0.0649,-0.0059,0.3131,1.2552,-9.7663,1.9394,7.0980,172.6392,0.0000,0.0000,0.0000,0.0000,0.0000,หนึ่ง
17184,-0.2173,0.0983,-0.0307,0.3125,1.2163,-9.7477,1.9277,7.0990,172.6413,0.0000,0.0000,0.0000,0.0000,0.0000,หนึ่ง
17300,-0.1934,0.0480,0.0172,0.3436,1.1768,-9.7489,1.9353,7.0770,172.6605,0.0000,0.0000,0.0000,0.0000,0.0000,หนึ่ง
17416,-0.2334,0.0748,-0.0075,0.3047,1.1989,-9.7286,1.9198,7.0715,172.6699,0.0000,0.0000,0.0000,0.0000,0.0000,หนึ่ง
17532,-0.1989,0.0733,-0.0164,0.3873,1.3641,-9.7220,1.9538,7.1625,172.5731,0.0000,0.0000,0.0000,0.0000,0.0000,หนึ่ง
17648,-0.1876,0.0357,0.0064,0.2771,1.2043,-9.7424,1.9201,7.1507,172.5934,0.0000,0.0000,0.0000,0.0000,0.0000,หนึ่ง
17764,-0.2035,0.0434,0.0239,0.2831,1.2103,-9.7645,1.8929,7.1419,172.6090,0.0000,0.0000,0.0000,0.0000,0.0000,หนึ่ง
17880,-0.1819,0.0479,-0.0393,0.4118,1.1768,-9.7316,1.9441,7.1167,172.6199,0.0000,0.0000,0.0000,0.0000,0.0000,หนึ่ง
17996,-0.2652,0.1021,0.0568,0.2305,1.4444,-9.6556,1.8853,7.2548,172.5017,0.0000,0.0000,0.0000,0.0000,0.0000,หนึ่ง
18112,-0.0765,0.0950,0.0560,0.4663,1.0792,-9.8088,1.9678,7.1560,172.5756,0.0000,0.0000,0.0000,0.0000,0.0000,break_time
18228,-0.1280,0.0701,-0.0165,0.4567,1.1259,-9.8166,2.0361,7.0937,172.6170,0.0000,0.0000,0.0000,0.0000,0.0000,break_time
18344,-0.1279,0.0172,0.0010,0.2873,1.2444,-9.7382,2.0001,7.1122,172.6091,0.0000,0.0000,0.0000,0.0000,0.0000,break_time
18460,-0.1828,0.0622,-0.0130,0.2897,1.2576,-9.7310,1.9693,7.1370,172.5935,0.0000,0.0000,0.0000,0.0000,0.0000,break_time
18576,-0.2026,0.0878,0.0067,0.3723,1.2217,-9.7322,1.9897,7.1383,172.5868,0.0000,0.0000,0.0000,0.0000,0.0000,break_time
18692,-0.2056,0.0558,-0.0258,0.3166,1.2247,-9.7202,1.9759,7.1422,172.5868,0.0000,0.0000,0.0000,0.0000,0.0000,break_time
18808,-0.2022,0.0530,0.0217,0.3029,1.2079,-9.7304,1.9552,7.1353,172.5990,0.0000,0.0000,0.0000,0.0000,0.0000,break_time
18924,-0.1951,0.0367,-0.0206,0.2969,1.1744,-9.7418,1.9330,7.1089,172.6304,0.0000,0.0000,0.0000,0.0000,0.0000,break_time
19040,-0.1898,0.0634,0.0108,0.2843,1.2337,-9.7268,1.9059,7.1205,172.6263,0.0000,0.0000,0.0000,0.0000,0.0000,break_time
19156,-0.1899,0.0947,-0.0001,0.3472,1.1953,-9.7382,1.9179,7.1078,172.6354,0.0000,0.0000,0.0000,0.0000,0.0000,break_time
19272,-0.2075,0.0532,0.0326,0.2747,1.2115,-9.7561,1.8862,7.1046,172.6467,0.0000,0.0000,0.0000,0.0000,0.0000,break_time
19388,-0.1779,0.0552,0.0057,0.3208,1.1989,-9.7645,1.8844,7.0938,172.6577,0.0000,0.0000,0.0000,0.0000,0.0000,break_time
19504,-0.1951,0.0286,0.0068,0.3095,1.2259,-9.7376,1.8765,7.1016,172.6522,0.0000,0.0000,0.0000,0.0000,0.0000,break_time
19620,-0.2333,0.0354,-0.0248,0.3190,1.2163,-9.7232,1.8753,7.1041,172.6501,0.0000,0.0000,0.0000,0.0000,0.0000,break_time
19736,-0.1910,0.0518,-0.0181,0.3538,1.2444,-9.7034,1.8949,7.1239,172.6259,0.0000,0.0000,0.0000,0.0000,0.0000,break_time
19852,-0.1847,0.0620,-0.0166,0.2610,1.2187,-9.7711,1.8571,7.1222,172.6372,0.0000,0.0000,0.0000,0.0000,0.0000,break_time
19968,-0.1955,0.0678,0.0225,0.3460,1.2163,-9.7627,1.8728,7.1197,172.6356,0.0000,0.0000,0.0000,0.0000,0.0000,break_time
20084,-0.1815,0.0642,-0.0100,0.3514,1.1977,-9.7184,1.8910,7.1099,172.6404,0.0000,0.0000,0.0000,0.0000,0.0000,break_time
20200,-0.1984,0.0643,0.0243,0.3400,1.2103,-9.7220,1.9006,7.1081,172.6396,0.0000,0.0000,0.0000,0.0000,0.0000,break_time
20316,-0.2150,0.0953,-0.0008,0.4591,1.2127,-9.6933,1.9794,7.1097,172.6172,0.0000,0.0000,0.0000,0.0000,0.0000,break_time
20432,-0.2097,0.0917,0.0412,0.3651,1.2169,-9.7549,1.9942,7.1093,172.6135,0.0000,0.0000,0.0000,0.0000,0.0000,break_time
20548,-0.1835,0.0615,-0.0307,0.2789,1.2163,-9.7370,1.9576,7.1101,172.6226,0.0000,0.0000,0.0000,0.0000,0.0000,break_time
20664,-0.2086,0.0575,-0.0106,0.3526,1.1894,-9.7699,1.9670,7.0927,172.6369,0.0000,0.0000,0.0000,0.0000,0.0000,break_time
20780,-0.1783,0.0725,0.0168,0.2909,1.1936,-9.7513,1.9399,7.0810,172.6555,0.0000,0.0000,0.0000,0.0000,0.0000,break_time
20896,-0.1890,0.0663,0.0089,0.3059,1.2163,-9.7406,1.9244,7.0843,172.6564,0.0000,0.0000,0.0000,0.0000,0.0000,break_time
21012,-0.1770,0.0582,0.0115,0.3526,1.2061,-9.7178,1.9381,7.0829,172.6541,0.0000,0.0000,0.0000,0.0000,0.0000,break_time
21128,-0.1823,0.0705,0.0225,0.3071,1.2049,-9.7735,1.9229,7.0771,172.6638,0.0000,0.0000,0.0000,0.0000,0.0000,nothing
21244,-0.2001,0.0788,-0.0263,0.3382,1.2073,-9.7292,1.9281,7.0763,172.6631,0.0000,0.0000,0.0000,0.0000,0.0000,nothing
21360,-0.2067,0.0504,0.0323,0.3154,1.2265,-9.7531,1.9191,7.0851,172.6570,0.0000,0.0000,0.0000,0.0000,0.0000,nothing
21476,-0.2244,0.0564,0.0607,0.3478,1.2372,-9.7382,1.9301,7.1002,172.6395,0.0000,0.0000,0.0000,0.0000,0.0000,nothing
21592,-0.1549,0.0907,-0.0061,0.1808,1.1427,-9.7388,1.8428,7.0594,172.7017,0.0000,0.0000,0.0000,0.0000,0.0000,หนึ่ง
21708,-0.1671,0.1628,-0.0112,0.3286,1.4707,-9.7729,1.8491,7.2097,172.5545,0.0000,0.0000,0.0000,0.0000,0.0000,หนึ่ง
21824,-0.2870,0.1301,0.0285,0.3017,1.2091,-9.6568,1.8418,7.2021,172.5637,0.0000,0.0000,0.0000,0.0000,0.0000,หนึ่ง
21940,-0.2965,0.0902,0.0252,0.3143,1.1983,-9.7956,1.8400,7.1789,172.5866,0.0000,0.0000,0.0000,0.0000,0.0000,หนึ่ง
22056,-0.2386,0.0708,-0.0397,0.2825,1.1912,-9.7471,1.8208,7.1575,172.6122,0.0000,0.0000,0.0000,0.0000,0.0000,หนึ่ง
22172,-0.1896,0.0845,-0.0031,0.2999,1.1726,-9.7531,1.8136,7.1269,172.6436,0.0000,0.0000,0.0000,0.0000,0.0000,หนึ่ง
22288,-0.1994,0.0791,-0.0162,0.3358,1.1971,-9.7459,1.8281,7.1141,172.6524,0.0000,0.0000,0.0000,0.0000,0.0000,หนึ่ง
22404,-0.2120,0.0541,-0.0228,0.3089,1.2139,-9.7669,1.8250,7.1108,172.6564,0.0000,0.0000,0.0000,0.0000,0.0000,หนึ่ง
22520,-0.1876,0.0855,0.0536,0.2957,1.1959,-9.7154,1.8156,7.1012,172.6680,0.0000,0.0000,0.0000,0.0000,0.0000,หนึ่ง
22636,-0.2343,0.0676,-0.0087,0.2694,1.2414,-9.7298,1.7913,7.1179,172.6579,0.0000,0.0000,0.0000,0.0000,0.0000,หนึ่ง
22752,-0.2402,0.0581,0.0222,0.3107,1.3450,-9.7058,1.7938,7.1946,172.5829,0.0000,0.0000,0.0000,0.0000,0.0000,หนึ่ง
22868,-0.3532,0.0607,-0.0450,0.2963,1.2211,-9.7992,1.7862,7.1850,172.5940,0.0000,0.0000,0.0000,0.0000,0.0000,หนึ่ง
22984,-0.2980,0.0889,0.0780,0.0263,1.2714,-9.6645,1.6243,7.2160,172.6015,0.0000,0.0000,0.0000,0.0000,0.0000,หนึ่ง
23100,-0.2038,0.0932,-0.0098,0.3711,1.1534,-9.7453,1.6784,7.1689,172.6352,0.0000,0.0000,0.0000,0.0000,0.0000,หนึ่ง
23216,-0.2617,0.0634,-0.0023,0.3005,1.1942,-9.7447,1.6859,7.1503,172.6516,0.0000,0.0000,0.0000,0.0000,0.0000,หนึ่ง
23332,-0.2214,0.0574,-0.0005,0.1999,1.2025,-9.7340,1.6341,7.1395,172.6740,0.0000,0.0000,0.0000,0.0000,0.0000,หนึ่ง
23448,-0.2243,0.0864,-0.0214,0.0796,1.1163,-9.6999,1.5180,7.0824,172.7551,0.0000,0.0000,0.0000,0.0000,0.0000,break_time
23564,0.0442,0.0957,0.0346,0.3951,1.0523,-9.7160,1.5975,6.9921,172.8259,0.0000,0.0000,0.0000,0.0000,0.0000,break_time
23680,-0.1358,-0.0215,-0.0439,0.4675,1.1469,-9.8549,1.7088,6.9557,172.8355,0.0000,0.0000,0.0000,0.0000,0.0000,break_time
23796,-0.1877,0.0484,-0.0543,0.2741,1.2672,-9.6963,1.6985,7.0042,172.7908,0.0000,0.0000,0.0000,0.0000,0.0000,break_time
23912,-0.1645,0.0746,-0.0314,0.4052,1.1882,-9.7603,1.7648,6.9973,172.7814,0.0000,0.0000,0.0000,0.0000,0.0000,break_time
24028,-0.2069,0.0620,0.0811,0.3597,1.2031,-9.7705,1.7977,6.9991,172.7715,0.0000,0.0000,0.0000,0.0000,0.0000,break_time
24144,-0.1872,0.0747,0.0055,0.2388,1.1858,-9.7447,1.7573,6.9928,172.7876,0.0000,0.0000,0.0000,0.0000,0.0000,break_time
24260,-0.2001,0.0431,0.0240,0.2783,1.2205,-9.7388,1.7440,7.0075,172.7766,0.0000,0.0000,0.0000,0.0000,0.0000,break_time
24376,-0.1557,0.0513,0.0064,0.4896,1.1540,-9.7543,1.8551,6.9808,172.7746,0.0000,0.0000,0.0000,0.0000,0.0000,break_time
24492,-0.2110,0.0498,-0.0198,0.1999,1.2528,-9.7603,1.7859,7.0141,172.7599,0.0000,0.0000,0.0000,0.0000,0.0000,break_time
24608,-0.2069,0.0608,0.0074,0.3406,1.2073,-9.7453,1.8059,7.0185,172.7506,0.0000,0.0000,0.0000,0.0000,0.0000,break_time
24724,-0.1685,0.0374,-0.0023,0.3585,1.2109,-9.7645,1.8341,7.0231,172.7390,0.0000,0.0000,0.0000,0.0000,0.0000,break_time
24840,-0.1894,0.0634,0.0219,0.2819,1.2049,-9.7615,1.8149,7.0242,172.7429,0.0000,0.0000,0.0000,0.0000,0.0000,break_time
24956,-0.1947,0.0449,0.0364,0.3909,1.1924,-9.7525,1.8612,7.0183,172.7367,0.0000,0.0000,0.0000,0.0000,0.0000,break_time
25072,-0.1446,0.0598,-0.0138,0.3556,1.2390,-9.7094,1.8830,7.0431,172.7070,0.0000,0.0000,0.0000,0.0000,0.0000,break_time
25188,-0.1988,0.0724,0.0622,0.1790,1.2259,-9.7346,1.7993,7.0565,172.7154,0.0000,0.0000,0.0000,0.0000,0.0000,break_time
25304,-0.2049,0.0479,0.1051,0.3466,1.2396,-9.7489,1.8214,7.0751,172.6919,0.0000,0.0000,0.0000,0.0000,0.0000,break_time
25420,-0.1936,0.0863,-0.0048,0.3861,1.2145,-9.7304,1.8647,7.0785,172.6776,0.0000,0.0000,0.0000,0.0000,0.0000,break_time
25536,-0.2121,0.0729,-0.0391,0.4256,1.2049,-9.7406,1.9265,7.0752,172.6646,0.0000,0.0000,0.0000,0.0000,0.0000,break_time
25652,-0.1978,0.0962,0.0485,0.0251,1.2744,-9.7202,1.7489,7.1148,172.6712,0.0000,0.0000,0.0000,0.0000,0.0000,break_time
25768,-0.2139,0.0939,0.0162,0.4872,1.1702,-9.7621,1.8579,7.0861,172.6720,0.0000,0.0000,0.0000,0.0000,0.0000,break_time
25884,-0.2213,0.0725,-0.0620,0.2394,1.2109,-9.7124,1.8124,7.0880,172.6817,0.0000,0.0000,0.0000,0.0000,0.0000,break_time
26000,-0.1802,0.0723,0.1081,0.4058,1.1708,-9.7699,1.8675,7.0619,172.6929,0.0000,0.0000,0.0000,0.0000,0.0000,break_time
26116,-0.2124,0.0503,-0.0571,0.2448,1.1738,-9.7130,1.8242,7.0447,172.7207,0.0000,0.0000,0.0000,0.0000,0.0000,break_time
26232,-0.2110,0.0613,-0.0605,0.1634,1.2414,-9.7082,1.7377,7.0688,172.7186,0.0000,0.0000,0.0000,0.0000,0.0000,break_time
26348,-0.2165,0.0673,0.0586,0.3981,1.1133,-9.7609,1.7961,7.0120,172.7594,0.0000,0.0000,0.0000,0.0000,0.0000,break_time
26464,-0.1602,0.0768,-0.0665,0.2496,1.2259,-9.7442,1.7620,7.0277,172.7526,0.0000,0.0000,0.0000,0.0000,0.0000,nothing
26580,-0.1921,0.0551,-0.0128,0.4298,1.1918,-9.6993,1.8374,7.0248,172.7366,0.0000,0.0000,0.0000,0.0000,0.0000,nothing
26696,-0.1658,0.0551,-0.0578,0.3346,1.2337,-9.7669,1.8483,7.0418,172.7173,0.0000,0.0000,0.0000,0.0000,0.0000,nothing
26812,-0.1977,0.0519,0.0544,0.2735,1.2678,-9.7130,1.8235,7.0809,172.6857,0.0000,0.0000,0.0000,0.0000,0.0000,nothing
26928,-0.2136,0.0834,0.0146,0.3184,1.1858,-9.7447,1.8270,7.0663,172.6991,0.0000,0.0000,0.0000,0.0000,0.0000,nothing
27044,-0.2082,0.0627,-0.0267,0.3585,1.2037,-9.7376,1.8536,7.0639,172.6946,0.0000,0.0000,0.0000,0.0000,0.0000,nothing
27160,-0.1808,0.0852,0.0378,0.3017,1.2803,-9.7100,1.8446,7.1082,172.6540,0.0000,0.0000,0.0000,0.0000,0.0000,nothing
27276,-0.1925,0.0693,-0.0544,0.2604,1.2720,-9.7501,1.8118,7.1405,172.6309,0.0000,0.0000,0.0000,0.0000,0.0000,nothing
27392,-0.2229,0.0802,0.0406,0.3125,1.2845,-9.7573,1.8125,7.1761,172.5962,0.0000,0.0000,0.0000,0.0000,0.0000,nothing
27508,-0.2117,0.0931,-0.0010,0.3029,1.2163,-9.7645,1.8075,7.1682,172.6051,0.0000,0.0000,0.0000,0.0000,0.0000,nothing
27624,-0.1933,0.0605,0.0042,0.2891,1.1768,-9.7591,1.7952,7.1386,172.6368,0.0000,0.0000,0.0000,0.0000,0.0000,nothing
27740,-0.1714,0.0421,-0.0130,0.2993,1.1959,-9.7400,1.7904,7.1244,172.6518,0.0000,0.0000,0.0000,0.0000,0.0000,nothing
27856,-0.1895,0.0627,-0.0045,0.3238,1.2121,-9.7046,1.8010,7.1235,172.6500,0.0000,0.0000,0.0000,0.0000,0.0000,nothing
27972,-0.2084,0.0799,0.0085,0.3340,1.2438,-9.7316,1.8158,7.1391,172.6312,0.0000,0.0000,0.0000,0.0000,0.0000,nothing
28088,-0.1872,0.0679,0.0594,0.3226,1.2181,-9.7190,1.8229,7.1392,172.6294,0.0000,0.0000,0.0000,0.0000,0.0000,nothing
28204,-0.2364,0.0774,0.0007,0.2101,1.1624,-9.7154,1.7638,7.1075,172.6747,0.0000,0.0000,0.0000,0.0000,0.0000,หนึ่ง
28320,-0.1734,0.1831,-0.0061,0.2993,0.9703,-9.7621,1.7622,6.9641,172.8142,0.0000,0.0000,0.0000,0.0000,0.0000,หนึ่ง
28436,-0.0725,0.0398,-0.0320,0.2490,1.1918,-9.7364,1.7314,6.9653,172.8206,0.0000,0.0000,0.0000,0.0000,0.0000,หนึ่ง
28552,-0.1830,0.0598,0.0161,0.3891,1.3025,-9.6957,1.7859,7.0332,172.7414,0.0000,0.0000,0.0000,0.0000,0.0000,หนึ่ง
28668,-0.2635,0.0762,0.0121,0.3406,1.3109,-9.7136,1.8063,7.0980,172.6735,0.0000,0.0000,0.0000,0.0000,0.0000,หนึ่ง
28784,-0.2598,0.0962,0.0113,0.3172,1.2402,-9.7436,1.8107,7.1132,172.6576,0.0000,0.0000,0.0000,0.0000,0.0000,หนึ่ง
28900,-0.2099,0.0897,-0.0495,0.2975,1.1971,-9.7639,1.8028,7.1006,172.6719,0.0000,0.0000,0.0000,0.0000,0.0000,หนึ่ง
29016,-0.1977,0.0897,0.0038,0.3005,1.1798,-9.7938,1.7970,7.0770,172.6962,0.0000,0.0000,0.0000,0.0000,0.0000,หนึ่ง
29132,-0.1964,0.0703,-0.0271,0.3358,1.1971,-9.7585,1.8129,7.0682,172.7007,0.0000,0.0000,0.0000,0.0000,0.0000,หนึ่ง
29248,-0.1958,0.0503,0.0671,0.3214,1.2618,-9.7322,1.8192,7.0997,172.6686,0.0000,0.0000,0.0000,0.0000,0.0000,หนึ่ง
29364,-0.2155,0.0601,-0.0356,0.3113,1.2223,-9.7142,1.8194,7.1065,172.6619,0.0000,0.0000,0.0000,0.0000,0.0000,หนึ่ง
29480,-0.2195,0.0474,0.0023,0.3131,1.2498,-9.7292,1.8203,7.1275,172.6414,0.0000,0.0000,0.0000,0.0000,0.0000,หนึ่ง
29596,-0.2333,0.0622,0.0420,0.3609,1.2271,-9.7064,1.8494,7.1348,172.6270,0.0000,0.0000,0.0000,0.0000,0.0000,หนึ่ง
29712,-0.2009,0.0813,0.0110,0.2873,1.1965,-9.7304,1.8324,7.1220,172.6437,0.0000,0.0000,0.0000,0.0000,0.0000,หนึ่ง
29828,-0.2016,0.0750,0.0233,0.3502,1.1540,-9.7705,1.8530,7.0829,172.6763,0.0000,0.0000,0.0000,0.0000,0.0000,หนึ่ง
29944,-0.1888,0.0553,-0.0153,0.3166,1.2193,-9.7322,1.8526,7.0884,172.6711,0.0000,0.0000,0.0000,0.0000,0.0000,หนึ่ง
30060,-0.2041,0.0444,-0.0570,0.3292,1.2061,-9.7340,1.8596,7.0855,172.6721,0.0000,0.0000,0.0000,0.0000,0.0000,หนึ่ง
30176,-0.2244,0.0806,0.0390,0.3316,1.2426,-9.7142,1.8676,7.1054,172.6508,0.0000,0.0000,0.0000,0.0000,0.0000,หนึ่ง
30292,-0.2109,0.0383,0.0033,0.2927,1.2073,-9.7537,1.8514,7.1002,172.6600,0.0000,0.0000,0.0000,0.0000,0.0000,หนึ่ง
30408,-0.1909,0.0507,0.0004,0.3424,1.2289,-9.7196,1.8664,7.1103,172.6464,0.0000,0.0000,0.0000,0.0000,0.0000,หนึ่ง
30524,-0.2037,0.0847,-0.0305,0.2640,1.2253,-9.7777,1.8331,7.1133,172.6519,0.0000,0.0000,0.0000,0.0000,0.0000,หนึ่ง
30640,-0.2030,0.0769,0.0266,0.3125,1.2666,-9.7005,1.8327,7.1454,172.6209,0.0000,0.0000,0.0000,0.0000,0.0000,หนึ่ง
30756,-0.1996,0.0742,-0.1096,0.3208,1.2079,-9.7322,1.8368,7.1380,172.6271,0.0000,0.0000,0.0000,0.0000,0.0000,หนึ่ง
30872,-0.1933,0.0680,0.0019,0.3119,1.2061,-9.7334,1.8352,7.1302,172.6350,0.0000,0.0000,0.0000,0.0000,0.0000,หนึ่ง
30988,-0.2210,0.0604,-0.0104,0.3346,1.2337,-9.7442,1.8468,7.1383,172.6242,0.0000,0.0000,0.0000,0.0000,0.0000,หนึ่ง
31104,-0.2226,0.0778,0.0225,0.2951,1.2163,-9.7615,1.8340,7.1344,172.6312,0.0000,0.0000,0.0000,0.0000,0.0000,หนึ่ง
31220,-0.1956,0.0652,-0.0695,0.3101,1.2528,-9.7082,1.8320,7.1559,172.6109,0.0000,0.0000,0.0000,0.0000,0.0000,หนึ่ง
31336,-0.1949,0.0804,0.0578,0.3418,1.2187,-9.7663,1.8477,7.1511,172.6116,0.0000,0.0000,0.0000,0.0000,0.0000,หนึ่ง
31452,-0.2035,0.0626,-0.0504,0.3777,1.2217,-9.6945,1.8842,7.1537,172.5998,0.0000,0.0000,0.0000,0.0000,0.0000,หนึ่ง
31568,-0.2200,0.0547,0.0583,0.3089,1.2175,-9.7663,1.8755,7.1486,172.6070,0.0000,0.0000,0.0000,0.0000,0.0000,หนึ่ง
31684,-0.2078,0.0693,-0.0049,0.3196,1.1912,-9.7501,1.8743,7.1299,172.6254,0.0000,0.0000,0.0000,0.0000,0.0000,หนึ่ง
31800,-0.2031,0.0555,-0.0286,0.2987,1.2133,-9.7364,1.8613,7.1269,172.6316,0.0000,0.0000,0.0000,0.0000,0.0000,หนึ่ง
31916,-0.1827,0.0455,0.0566,0.3274,1.2139,-9.7322,1.8663,7.1248,172.6324,0.0000,0.0000,0.0000,0.0000,0.0000,หนึ่ง
32032,-0.1967,0.0642,-0.0102,0.3292,1.2121,-9.7208,1.8722,7.1227,172.6329,0.0000,0.0000,0.0000,0.0000,0.0000,หนึ่ง
32148,-0.2078,0.0680,-0.0889,0.2843,1.2073,-9.7322,1.8510,7.1173,172.6435,0.0000,0.0000,0.0000,0.0000,0.0000,หนึ่ง
32264,-0.2056,0.0393,0.0499,0.2837,1.1953,-9.7364,1.8316,7.1052,172.6602,0.0000,0.0000,0.0000,0.0000,0.0000,หนึ่ง
32380,-0.1735,0.0619,-0.0046,0.3346,1.2235,-9.7400,1.8437,7.1102,172.6522,0.0000,0.0000,0.0000,0.0000,0.0000,หนึ่ง
32496,-0.2110,0.0863,-0.0296,0.3196,1.1942,-9.7753,1.8452,7.0953,172.6663,0.0000,0.0000,0.0000,0.0000,0.0000,หนึ่ง
32612,-0.2234,0.0590,0.0004,0.2712,1.2175,-9.7465,1.8188,7.0975,172.6708,0.0000,0.0000,0.0000,0.0000,0.0000,หนึ่ง
32728,-0.2176,0.0763,-0.0243,0.3214,1.1983,-9.7537,1.8243,7.0878,172.6789,0.0000,0.0000,0.0000,0.0000,0.0000,หนึ่ง
32844,-0.2063,0.0798,0.0143,0.3280,1.2217,-9.7597,1.8329,7.0921,172.6725,0.0000,0.0000,0.0000,0.0000,0.0000,หนึ่ง
32960,-0.1891,0.0733,-0.0119,0.3304,1.2151,-9.7094,1.8429,7.0958,172.6664,0.0000,0.0000,0.0000,0.0000,0.0000,หนึ่ง
33076,-0.1804,0.0845,-0.0269,0.3280,1.2821,-9.7292,1.8501,7.1365,172.6251,0.0000,0.0000,0.0000,0.0000,0.0000,หนึ่ง
33192,-0.2075,0.0890,-0.0063,0.2753,1.2762,-9.7328,1.8258,7.1696,172.5992,0.0000,0.0000,0.0000,0.0000,0.0000,หนึ่ง
33308,-0.2187,0.0648,-0.0011,0.2735,1.2019,-9.7412,1.8028,7.1558,172.6183,0.0000,0.0000,0.0000,0.0000,0.0000,หนึ่ง
33424,-0.2095,0.0863,0.0424,0.3831,1.2911,-9.7436,1.8458,7.1945,172.5700,0.0000,0.0000,0.0000,0.0000,0.0000,หนึ่ง
33540,-0.2406,0.0983,-0.0395,0.3089,1.1822,-9.6173,1.8438,7.1757,172.5888,0.0000,0.0000,0.0000,0.0000,0.0000,break_time
33656,-0.1502,0.1500,-0.0016,0.2807,1.0218,-9.6615,1.8252,7.0625,172.7031,0.0000,0.0000,0.0000,0.0000,0.0000,break_time
33772,-0.1234,0.1010,-0.0015,0.3550,1.2857,-9.6705,1.8509,7.1129,172.6478,0.0000,0.0000,0.0000,0.0000,0.0000,break_time
33888,-0.2428,0.0882,0.0288,0.3711,1.2696,-9.7394,1.8823,7.1439,172.6098,0.0000,0.0000,0.0000,0.0000,0.0000,break_time
34004,-0.2454,0.0641,0.0725,0.3190,1.2534,-9.7106,1.8807,7.1646,172.5902,0.0000,0.0000,0.0000,0.0000,0.0000,break_time
34120,-0.2267,0.0799,0.0206,0.3143,1.2097,-9.7334,1.8762,7.1562,172.5994,0.0000,0.0000,0.0000,0.0000,0.0000,break_time
34236,-0.2044,0.0585,-0.0016,0.3059,1.2163,-9.7005,1.8678,7.1549,172.6028,0.0000,0.0000,0.0000,0.0000,0.0000,break_time
34352,-0.1988,0.0731,0.0095,0.3059,1.2073,-9.7531,1.8592,7.1447,172.6149,0.0000,0.0000,0.0000,0.0000,0.0000,break_time
34468,-0.1877,0.0724,-0.0158,0.2969,1.2025,-9.7256,1.8468,7.1348,172.6277,0.0000,0.0000,0.0000,0.0000,0.0000,break_time
34584,-0.2162,0.0697,-0.0270,0.3460,1.2349,-9.7465,1.8639,7.1430,172.6154,0.0000,0.0000,0.0000,0.0000,0.0000,break_time
34700,-0.2120,0.0641,0.0616,0.2891,1.2265,-9.7447,1.8461,7.1457,172.6173,0.0000,0.0000,0.0000,0.0000,0.0000,break_time
34816,-0.2372,0.0615,-0.0469,0.2604,1.2343,-9.7082,1.8139,7.1554,172.6159,0.0000,0.0000,0.0000,0.0000,0.0000,break_time
34932,-0.2125,0.0487,0.0664,0.3819,1.2205,-9.7160,1.8558,7.1553,172.6055,0.0000,0.0000,0.0000,0.0000,0.0000,break_time
35048,-0.2218,0.0672,-0.0294,0.2843,1.2055,-9.7352,1.8363,7.1454,172.6200,0.0000,0.0000,0.0000,0.0000,0.0000,break_time
35164,-0.1971,0.0639,0.0526,0.3418,1.1762,-9.7094,1.8527,7.1212,172.6393,0.0000,0.0000,0.0000,0.0000,0.0000,break_time
35280,-0.2033,0.0773,-0.0731,0.3113,1.2283,-9.7465,1.8489,7.1270,172.6347,0.0000,0.0000,0.0000,0.0000,0.0000,break_time
35396,-0.1945,0.0744,-0.0206,0.3148,1.2319,-9.7507,1.8475,7.1340,172.6283,0.0000,0.0000,0.0000,0.0000,0.0000,break_time
35512,-0.1888,0.0646,0.0091,0.2921,1.2468,-9.7555,1.8329,7.1486,172.6178,0.0000,0.0000,0.0000,0.0000,0.0000,break_time
35628,-0.2052,0.1021,0.0252,0.3095,1.2337,-9.7412,1.8301,7.1552,172.6121,0.0000,0.0000,0.0000,0.0000,0.0000,break_time
35744,-0.1875,0.0203,-0.0113,0.3107,1.2349,-9.7322,1.8285,7.1624,172.6055,0.0000,0.0000,0.0000,0.0000,0.0000,break_time
35860,-0.2116,0.0942,0.0368,0.2550,1.2001,-9.7495,1.7943,7.1477,172.6283,0.0000,0.0000,0.0000,0.0000,0.0000,break_time
35976,-0.1865,0.0688,0.0487,0.3029,1.2067,-9.7418,1.7916,7.1387,172.6376,0.0000,0.0000,0.0000,0.0000,0.0000,break_time
36092,-0.1870,0.0630,-0.0185,0.2885,1.2043,-9.7412,1.7808,7.1293,172.6494,0.0000,0.0000,0.0000,0.0000,0.0000,break_time
36208,-0.1660,0.0628,0.0038,0.3286,1.2193,-9.7244,1.7947,7.1307,172.6447,0.0000,0.0000,0.0000,0.0000,0.0000,break_time
36324,-0.1898,0.0713,0.0327,0.3436,1.2241,-9.7735,1.8151,7.1310,172.6393,0.0000,0.0000,0.0000,0.0000,0.0000,break_time
36440,-0.1738,0.0872,0.0101,0.3202,1.2468,-9.7298,1.8206,7.1478,172.6217,0.0000,0.0000,0.0000,0.0000,0.0000,break_time
36556,-0.2519,0.0796,0.0624,0.2813,1.2139,-9.6915,1.8036,7.1467,172.6270,0.0000,0.0000,0.0000,0.0000,0.0000,nothing
36672,-0.1790,0.0712,-0.0085,0.3220,1.1774,-9.7250,1.8115,7.1220,172.6490,0.0000,0.0000,0.0000,0.0000,0.0000,nothing
36788,-0.2129,0.0701,-0.0394,0.3244,1.2372,-9.7046,1.8203,7.1359,172.6333,0.0000,0.0000,0.0000,0.0000,0.0000,nothing
36904,-0.2380,0.1663,-0.0160,0.3897,1.3456,-9.7609,1.8649,7.2069,172.5532,0.0000,0.0000,0.0000,0.0000,0.0000,หนึ่ง
37020,-0.2971,0.1152,-0.0064,0.2694,1.1205,-9.7956,1.8348,7.1383,172.6273,0.0000,0.0000,0.0000,0.0000,0.0000,หนึ่ง
37136,-0.1914,0.0304,-0.0234,0.2921,1.0786,-9.7789,1.8214,7.0534,172.7129,0.0000,0.0000,0.0000,0.0000,0.0000,หนึ่ง
37252,-0.1464,0.0405,0.0090,0.3184,1.1648,-9.7525,1.8249,7.0288,172.7358,0.0000,0.0000,0.0000,0.0000,0.0000,หนึ่ง
37368,-0.1347,0.0428,0.0138,0.2963,1.2247,-9.7477,1.8152,7.0417,172.7258,0.0000,0.0000,0.0000,0.0000,0.0000,หนึ่ง
37484,-0.1992,0.0423,0.0070,0.2789,1.2468,-9.7501,1.7962,7.0660,172.7070,0.0000,0.0000,0.0000,0.0000,0.0000,หนึ่ง
37600,-0.1585,0.0661,-0.0025,0.3382,1.1864,-9.6849,1.8150,7.0574,172.7106,0.0000,0.0000,0.0000,0.0000,0.0000,หนึ่ง
37716,-0.1725,0.0656,0.0267,0.4238,1.2684,-9.7495,1.8804,7.0923,172.6601,0.0000,0.0000,0.0000,0.0000,0.0000,หนึ่ง
37832,-0.2386,0.0698,0.0369,0.3496,1.2600,-9.7334,1.8964,7.1202,172.6290,0.0000,0.0000,0.0000,0.0000,0.0000,หนึ่ง
37948,-0.2388,0.0682,0.0102,0.3508,1.2007,-9.7771,1.9107,7.1079,172.6372,0.0000,0.0000,0.0000,0.0000,0.0000,หนึ่ง
38064,-0.2292,0.0885,-0.0398,0.3502,1.2271,-9.7370,1.9240,7.1149,172.6270,0.0000,0.0000,0.0000,0.0000,0.0000,หนึ่ง
38180,-0.2268,0.0879,0.0716,0.2969,1.1888,-9.7501,1.9047,7.0982,172.6481,0.0000,0.0000,0.0000,0.0000,0.0000,หนึ่ง
38296,-0.2215,0.0712,0.0255,0.3190,1.1690,-9.7005,1.9013,7.0753,172.6712,0.0000,0.0000,0.0000,0.0000,0.0000,หนึ่ง
38412,-0.1926,0.0593,-0.0172,0.3370,1.1852,-9.7807,1.9071,7.0582,172.6862,0.0000,0.0000,0.0000,0.0000,0.0000,หนึ่ง
38528,-0.2035,0.0658,0.0318,0.3532,1.2091,-9.7400,1.9224,7.0596,172.6808,0.0000,0.0000,0.0000,0.0000,0.0000,หนึ่ง
38644,-0.1989,0.0778,-0.0476,0.2712,1.2762,-9.6939,1.8892,7.1031,172.6474,0.0000,0.0000,0.0000,0.0000,0.0000,หนึ่ง
38760,-0.1821,0.0878,-0.0056,0.3819,1.2378,-9.7178,1.9235,7.1182,172.6239,0.0000,0.0000,0.0000,0.0000,0.0000,หนึ่ง
38876,-0.1926,0.0571,-0.0213,0.3041,1.2720,-9.7124,1.9090,7.1521,172.5950,0.0000,0.0000,0.0000,0.0000,0.0000,หนึ่ง
38992,-0.1906,0.0474,-0.0166,0.3699,1.2247,-9.7471,1.9337,7.1525,172.5881,0.0000,0.0000,0.0000,0.0000,0.0000,หนึ่ง
39108,-0.2110,0.0496,0.0586,0.2825,1.2845,-9.7088,1.9057,7.1905,172.5586,0.0000,0.0000,0.0000,0.0000,0.0000,หนึ่ง
39224,-0.2206,0.0665,-0.0574,0.3771,1.2073,-9.7705,1.9346,7.1754,172.5658,0.0000,0.0000,0.0000,0.0000,0.0000,หนึ่ง
39340,-0.2049,0.0712,-0.0440,0.2472,1.2067,-9.7304,1.8856,7.1646,172.5889,0.0000,0.0000,0.0000,0.0000,0.0000,หนึ่ง
39456,-0.2120,0.0759,-0.0289,0.3083,1.2307,-9.7364,1.8769,7.1681,172.5877,0.0000,0.0000,0.0000,0.0000,0.0000,หนึ่ง
39572,-0.2380,0.0532,-0.0115,0.3639,1.2121,-9.7346,1.9017,7.1606,172.5886,0.0000,0.0000,0.0000,0.0000,0.0000,หนึ่ง
39688,-0.2361,0.0829,0.0135,0.3310,1.1792,-9.7555,1.9045,7.1333,172.6142,0.0000,0.0000,0.0000,0.0000,0.0000,break_time
39804,-0.1944,0.0185,-0.0191,0.2843,1.0068,-9.8136,1.8790,7.0049,172.7450,0.0000,0.0000,0.0000,0.0000,0.0000,break_time
39920,-0.1524,0.0189,0.0200,0.2712,1.1762,-9.7328,1.8496,6.9933,172.7639,0.0000,0.0000,0.0000,0.0000,0.0000,break_time
40036,-0.1511,0.0738,-0.0041,0.3280,1.2247,-9.7400,1.8560,7.0102,172.7458,0.0000,0.0000,0.0000,0.0000,0.0000,break_time
40152,-0.1978,0.0716,-0.0258,0.1712,1.2486,-9.7436,1.7702,7.0394,172.7392,0.0000,0.0000,0.0000,0.0000,0.0000,break_time
40268,-0.1939,0.0642,0.0210,0.3238,1.2127,-9.6801,1.7833,7.0491,172.7266,0.0000,0.0000,0.0000,0.0000,0.0000,break_time
40384,-0.2121,0.0409,-0.0214,0.2400,1.2091,-9.7519,1.7448,7.0508,172.7344,0.0000,0.0000,0.0000,0.0000,0.0000,break_time
40500,-0.2416,0.0401,-0.0147,0.3520,1.2337,-9.7184,1.7761,7.0687,172.7094,0.0000,0.0000,0.0000,0.0000,0.0000,break_time
40616,-0.2044,0.0778,0.0472,0.2855,1.0924,-9.7346,1.7654,7.0019,172.7768,0.0000,0.0000,0.0000,0.0000,0.0000,break_time
40732,-0.2068,0.0807,-0.0327,0.3316,1.0750,-9.7154,1.7831,6.9330,172.8392,0.0000,0.0000,0.0000,0.0000,0.0000,break_time
40848,-0.1843,0.0720,-0.0249,0.3232,1.2079,-9.7220,1.7938,6.9475,172.8224,0.0000,0.0000,0.0000,0.0000,0.0000,break_time
40964,-0.1850,0.0601,-0.0170,0.3172,1.2151,-9.7603,1.7992,6.9621,172.8069,0.0000,0.0000,0.0000,0.0000,0.0000,break_time
41080,-0.1962,0.0736,-0.0128,0.3316,1.2079,-9.7286,1.8130,6.9733,172.7926,0.0000,0.0000,0.0000,0.0000,0.0000,break_time
41196,-0.1928,0.0656,-0.0420,0.3304,1.2265,-9.7609,1.8241,6.9918,172.7719,0.0000,0.0000,0.0000,0.0000,0.0000,break_time
41312,-0.1984,0.0669,-0.0454,0.3095,1.2265,-9.7166,1.8227,7.0116,172.7531,0.0000,0.0000,0.0000,0.0000,0.0000,break_time
41428,-0.2254,0.0645,0.0070,0.3131,1.2121,-9.7328,1.8232,7.0200,172.7448,0.0000,0.0000,0.0000,0.0000,0.0000,break_time
41544,-0.2053,0.0834,0.0060,0.2933,1.2343,-9.7280,1.8122,7.0407,172.7275,0.0000,0.0000,0.0000,0.0000,0.0000,break_time
41660,-0.1954,0.0375,0.0166,0.2969,1.1995,-9.7232,1.8046,7.0396,172.7305,0.0000,0.0000,0.0000,0.0000,0.0000,break_time
41776,-0.2259,0.0759,-0.1096,0.2849,1.2127,-9.7627,1.7900,7.0435,172.7304,0.0000,0.0000,0.0000,0.0000,0.0000,break_time
41892,-0.2042,0.0350,0.0234,0.3256,1.2157,-9.7310,1.8012,7.0508,172.7205,0.0000,0.0000,0.0000,0.0000,0.0000,break_time
42008,-0.2037,0.0598,-0.0263,0.3460,1.2031,-9.7424,1.8229,7.0493,172.7165,0.0000,0.0000,0.0000,0.0000,0.0000,break_time
42124,-0.1726,0.0353,0.0427,0.3376,1.2043,-9.7238,1.8379,7.0500,172.7120,0.0000,0.0000,0.0000,0.0000,0.0000,break_time
42240,-0.2161,0.0352,-0.0374,0.3448,1.2408,-9.7639,1.8548,7.0689,172.6894,0.0000,0.0000,0.0000,0.0000,0.0000,break_time
42356,-0.1849,0.0544,0.0352,0.3107,1.2522,-9.7232,1.8508,7.0955,172.6647,0.0000,0.0000,0.0000,0.0000,0.0000,break_time
42472,-0.1955,0.0634,0.0098,0.3484,1.2073,-9.7884,1.8681,7.0886,172.6669,0.0000,0.0000,0.0000,0.0000,0.0000,break_time
42588,-0.1932,0.0544,-0.0386,0.2688,1.2265,-9.6999,1.8389,7.1001,172.6633,0.0000,0.0000,0.0000,0.0000,0.0000,break_time
42704,-0.1860,0.0721,-0.0022,0.3573,1.2289,-9.7214,1.8638,7.1100,172.6473,0.0000,0.0000,0.0000,0.0000,0.0000,nothing
42820,-0.1934,0.0540,-0.0746,0.3101,1.2307,-9.7322,1.8585,7.1193,172.6396,0.0000,0.0000,0.0000,0.0000,0.0000,nothing
42936,-0.1689,0.0885,-0.0518,0.3262,1.2223,-9.7352,1.8631,7.1226,172.6353,0.0000,0.0000,0.0000,0.0000,0.0000,nothing
43052,-0.1748,0.0694,0.0142,0.3119,1.2217,-9.7579,1.8584,7.1236,172.6355,0.0000,0.0000,0.0000,0.0000,0.0000,nothing
43168,-0.2264,0.0454,0.0255,0.3244,1.2115,-9.7424,1.8618,7.1197,172.6384,0.0000,0.0000,0.0000,0.0000,0.0000,nothing
43284,-0.2277,0.0663,-0.0140,0.3358,1.2331,-9.7184,1.8719,7.1304,172.6255,0.0000,0.0000,0.0000,0.0000,0.0000,nothing
43400,-0.2427,0.0798,-0.0319,0.3573,1.1540,-9.7076,1.8940,7.0950,172.6540,0.0000,0.0000,0.0000,0.0000,0.0000,หนึ่ง
43516,-0.2886,0.2174,-0.0474,0.7578,1.3683,-9.6119,2.1491,7.1932,172.4893,0.0000,0.0000,0.0000,0.0000,0.0000,หนึ่ง
43632,-0.3161,0.1408,0.0384,0.2376,1.1816,-9.7579,2.0725,7.1641,172.5391,0.0000,0.0000,0.0000,0.0000,0.0000,หนึ่ง
43748,-0.1975,0.0558,0.0675,0.2975,1.0702,-9.7669,2.0386,7.0726,172.6366,0.0000,0.0000,0.0000,0.0000,0.0000,หนึ่ง
43864,-0.1752,0.0735,-0.0095,0.2921,1.1546,-9.7220,2.0057,7.0424,172.6748,0.0000,0.0000,0.0000,0.0000,0.0000,หนึ่ง
43980,-0.1849,0.0155,0.0262,0.3065,1.2151,-9.7495,1.9838,7.0482,172.6752,0.0000,0.0000,0.0000,0.0000,0.0000,หนึ่ง
44096,-0.2179,0.0613,0.0245,0.3430,1.3755,-9.7346,1.9852,7.1474,172.5792,0.0000,0.0000,0.0000,0.0000,0.0000,หนึ่ง
44212,-0.2034,0.0639,0.0123,0.3029,1.2780,-9.7262,1.9636,7.1809,172.5528,0.0000,0.0000,0.0000,0.0000,0.0000,หนึ่ง
44328,-0.2121,0.0387,0.0164,0.3520,1.2181,-9.7310,1.9727,7.1758,172.5552,0.0000,0.0000,0.0000,0.0000,0.0000,หนึ่ง
44444,-0.2150,0.0706,0.0236,0.3160,1.2325,-9.7382,1.9599,7.1792,172.5554,0.0000,0.0000,0.0000,0.0000,0.0000,หนึ่ง
44560,-0.1945,0.0841,0.0300,0.3496,1.1834,-9.7430,1.9679,7.1533,172.5782,0.0000,0.0000,0.0000,0.0000,0.0000,หนึ่ง
44676,-0.2112,0.0641,-0.0507,0.2981,1.2366,-9.7124,1.9455,7.1633,172.5746,0.0000,0.0000,0.0000,0.0000,0.0000,หนึ่ง
44792,-0.2273,0.0609,0.0174,0.3651,1.2313,-9.7346,1.9641,7.1673,172.5657,0.0000,0.0000,0.0000,0.0000,0.0000,หนึ่ง
44908,-0.1815,0.0829,-0.0409,0.3041,1.2085,-9.7675,1.9446,7.1555,172.5823,0.0000,0.0000,0.0000,0.0000,0.0000,หนึ่ง
45024,-0.1952,0.0420,-0.0203,0.3119,1.1660,-9.7621,1.9318,7.1207,172.6193,0.0000,0.0000,0.0000,0.0000,0.0000,หนึ่ง
45140,-0.1887,0.0813,-0.0078,0.3280,1.2079,-9.6927,1.9309,7.1186,172.6215,0.0000,0.0000,0.0000,0.0000,0.0000,หนึ่ง
45256,-0.2057,0.0791,0.0224,0.3059,1.2438,-9.7148,1.9167,7.1360,172.6085,0.0000,0.0000,0.0000,0.0000,0.0000,หนึ่ง
45372,-0.2116,0.0806,0.0158,0.3256,1.2133,-9.7328,1.9152,7.1326,172.6122,0.0000,0.0000,0.0000,0.0000,0.0000,หนึ่ง
45488,-0.2065,0.0871,-0.0316,0.2951,1.2085,-9.7549,1.8956,7.1252,172.6244,0.0000,0.0000,0.0000,0.0000,0.0000,หนึ่ง
45604,-0.1770,0.0474,0.0108,0.3095,1.2085,-9.7382,1.8867,7.1198,172.6320,0.0000,0.0000,0.0000,0.0000,0.0000,หนึ่ง
45720,-0.2108,0.0577,0.0158,0.3310,1.2073,-9.7334,1.8913,7.1145,172.6359,0.0000,0.0000,0.0000,0.0000,0.0000,หนึ่ง
45836,-0.2099,0.0728,0.0495,0.2873,1.1983,-9.7226,1.8702,7.1054,172.6501,0.0000,0.0000,0.0000,0.0000,0.0000,หนึ่ง
45952,-0.2116,0.0616,0.0204,0.3184,1.2522,-9.7513,1.8687,7.1263,172.6303,0.0000,0.0000,0.0000,0.0000,0.0000,หนึ่ง
46068,-0.2308,0.0499,0.0064,0.2981,1.2372,-9.6993,1.8565,7.1402,172.6200,0.0000,0.0000,0.0000,0.0000,0.0000,หนึ่ง
46184,-0.2214,0.0454,-0.0367,0.3514,1.2097,-9.7124,1.8764,7.1357,172.6192,0.0000,0.0000,0.0000,0.0000,0.0000,หนึ่ง
46300,-0.2128,0.0701,0.1223,0.3166,1.2091,-9.7418,1.8735,7.1293,172.6262,0.0000,0.0000,0.0000,0.0000,0.0000,หนึ่ง
46416,-0.2108,0.0633,-0.0146,0.3023,1.2223,-9.7400,1.8625,7.1313,172.6270,0.0000,0.0000,0.0000,0.0000,0.0000,หนึ่ง
46532,-0.1939,0.0994,-0.0421,0.3591,1.2163,-9.7741,1.8852,7.1270,172.6254,0.0000,0.0000,0.0000,0.0000,0.0000,หนึ่ง
46648,-0.2209,0.0628,-0.0597,0.2963,1.2384,-9.8076,1.8682,7.1337,172.6232,0.0000,0.0000,0.0000,0.0000,0.0000,หนึ่ง
46764,-0.2074,0.0897,0.0206,0.3190,1.2199,-9.7825,1.8668,7.1308,172.6264,0.0000,0.0000,0.0000,0.0000,0.0000,หนึ่ง
46880,-0.2109,0.0695,-0.0307,0.3406,1.2229,-9.7561,1.8785,7.1317,172.6225,0.0000,0.0000,0.0000,0.0000,0.0000,หนึ่ง
46996,-0.2158,0.0537,-0.0536,0.3328,1.1870,-9.7292,1.8851,7.1138,172.6382,0.0000,0.0000,0.0000,0.0000,0.0000,หนึ่ง
47112,-0.2264,0.0429,-0.0828,0.2969,1.2343,-9.7418,1.8698,7.1241,172.6321,0.0000,0.0000,0.0000,0.0000,0.0000,หนึ่ง
47228,-0.2023,0.0840,0.0252,0.2897,1.2187,-9.7256,1.8521,7.1256,172.6352,0.0000,0.0000,0.0000,0.0000,0.0000,หนึ่ง
47344,-0.1944,0.0721,-0.0457,0.3400,1.2181,-9.7310,1.8655,7.1262,172.6313,0.0000,0.0000,0.0000,0.0000,0.0000,หนึ่ง
47460,-0.1967,0.0660,0.0802,0.3053,1.2115,-9.7657,1.8566,7.1204,172.6391,0.0000,0.0000,0.0000,0.0000,0.0000,หนึ่ง
47576,-0.1823,0.0864,-0.0078,0.3394,1.2187,-9.7537,1.8687,7.1201,172.6363,0.0000,0.0000,0.0000,0.0000,0.0000,หนึ่ง
47692,-0.1718,0.0889,-0.0134,0.2903,1.2259,-9.7118,1.8517,7.1272,172.6338,0.0000,0.0000,0.0000,0.0000,0.0000,หนึ่ง
47808,-0.1763,0.0675,-0.0101,0.2885,1.2372,-9.7196,1.8353,7.1396,172.6260,0.0000,0.0000,0.0000,0.0000,0.0000,หนึ่ง
47924,-0.2263,0.0783,0.0699,0.3400,1.2295,-9.7346,1.8502,7.1450,172.6169,0.0000,0.0000,0.0000,0.0000,0.0000,หนึ่ง
48040,-0.2288,0.0622,0.0187,0.2981,1.2241,-9.7334,1.8392,7.1470,172.6178,0.0000,0.0000,0.0000,0.0000,0.0000,หนึ่ง
48156,-0.1922,0.0643,-0.0079,0.3382,1.2085,-9.7519,1.8524,7.1383,172.6228,0.0000,0.0000,0.0000,0.0000,0.0000,หนึ่ง
48272,-0.1806,0.0787,-0.0025,0.2963,1.2474,-9.7298,1.8402,7.1547,172.6101,0.0000,0.0000,0.0000,0.0000,0.0000,หนึ่ง
48388,-0.1943,0.0810,-0.0368,0.2795,1.1912,-9.7268,1.8196,7.1371,172.6322,0.0000,0.0000,0.0000,0.0000,0.0000,หนึ่ง
48504,-0.1819,0.0871,0.0363,0.3131,1.2157,-9.7639,1.8199,7.1328,172.6364,0.0000,0.0000,0.0000,0.0000,0.0000,หนึ่ง
48620,-0.2079,0.0558,-0.0665,0.2616,1.2043,-9.7477,1.7904,7.1236,172.6526,0.0000,0.0000,0.0000,0.0000,0.0000,หนึ่ง
48736,-0.1982,0.0548,0.0016,0.3322,1.2265,-9.7304,1.8054,7.1292,172.6434,0.0000,0.0000,0.0000,0.0000,0.0000,หนึ่ง
48852,-0.1909,0.0733,-0.0549,0.3172,1.2289,-9.7573,1.8096,7.1337,172.6380,0.0000,0.0000,0.0000,0.0000,0.0000,หนึ่ง
48968,-0.1832,0.0547,-0.0033,0.3448,1.2133,-9.7543,1.8296,7.1290,172.6376,0.0000,0.0000,0.0000,0.0000,0.0000,หนึ่ง
49084,-0.2011,0.0609,0.0346,0.2873,1.2145,-9.7537,1.8140,7.1255,172.6449,0.0000,0.0000,0.0000,0.0000,0.0000,หนึ่ง
49200,-0.2034,0.0781,-0.0090,0.3573,1.2307,-9.7172,1.8415,7.1343,172.6295,0.0000,0.0000,0.0000,0.0000,0.0000,หนึ่ง
49316,-0.1979,0.0384,-0.0374,0.3274,1.2151,-9.7555,1.8481,7.1305,172.6315,0.0000,0.0000,0.0000,0.0000,0.0000,หนึ่ง
49432,-0.1794,0.0618,0.0972,0.3334,1.2139,-9.6987,1.8586,7.1304,172.6289,0.0000,0.0000,0.0000,0.0000,0.0000,หนึ่ง
49548,-0.2079,0.0735,0.0318,0.2718,1.2277,-9.7579,1.8310,7.1342,172.6322,0.0000,0.0000,0.0000,0.0000,0.0000,หนึ่ง
49664,-0.1884,0.0807,-0.0443,0.3843,1.2121,-9.7400,1.8721,7.1296,172.6262,0.0000,0.0000,0.0000,0.0000,0.0000,หนึ่ง
49780,-0.2005,0.0755,-0.0187,0.2759,1.2145,-9.7304,1.8461,7.1278,172.6346,0.0000,0.0000,0.0000,0.0000,0.0000,หนึ่ง
49896,-0.2026,0.0495,0.0113,0.3370,1.2151,-9.7394,1.8582,7.1258,172.6335,0.0000,0.0000,0.0000,0.0000,0.0000,หนึ่ง
50012,-0.2119,0.0622,-0.0153,0.3035,1.2295,-9.6999,1.8501,7.1352,172.6264,0.0000,0.0000,0.0000,0.0000,0.0000,หนึ่ง
50128,-0.2153,0.0468,0.0304,0.3514,1.2031,-9.7561,1.8699,7.1243,172.6320,0.0000,0.0000,0.0000,0.0000,0.0000,หนึ่ง
50244,-0.1913,0.0597,-0.0035,0.3196,1.2277,-9.7124,1.8699,7.1318,172.6246,0.0000,0.0000,0.0000,0.0000,0.0000,หนึ่ง
50360,-0.1741,0.0740,0.0115,0.3250,1.1989,-9.7388,1.8726,7.1201,172.6353,0.0000,0.0000,0.0000,0.0000,0.0000,หนึ่ง
50476,-0.2339,0.0934,0.0787,0.3244,1.4054,-9.7106,1.8748,7.2312,172.5272,0.0000,0.0000,0.0000,0.0000,0.0000,nothing
50592,-0.1321,0.1258,-0.0232,0.2101,1.0918,-9.7741,1.8096,7.1452,172.6269,0.0000,0.0000,0.0000,0.0000,0.0000,nothing
50708,-0.2059,0.0923,0.0033,0.2568,1.3659,-9.7184,1.7785,7.2304,172.5518,0.0000,0.0000,0.0000,0.0000,0.0000,nothing
50824,-0.2202,0.0877,0.0339,0.2735,1.2271,-9.7436,1.7602,7.2249,172.5616,0.0000,0.0000,0.0000,0.0000,0.0000,nothing
50940,-0.2120,0.0483,0.0217,0.3448,1.2079,-9.7358,1.7855,7.2092,172.5707,0.0000,0.0000,0.0000,0.0000,0.0000,nothing
51056,-0.2015,0.0479,0.0384,0.3208,1.1870,-9.7382,1.7942,7.1829,172.5941,0.0000,0.0000,0.0000,0.0000,0.0000,nothing
51172,-0.2159,0.0675,-0.0326,0.3148,1.2145,-9.7843,1.7977,7.1718,172.6040,0.0000,0.0000,0.0000,0.0000,0.0000,nothing
51288,-0.1952,0.0583,0.0447,0.3262,1.1816,-9.7184,1.8088,7.1475,172.6249,0.0000,0.0000,0.0000,0.0000,0.0000,nothing
51404,-0.1750,0.0609,-0.0262,0.3095,1.2223,-9.7364,1.8085,7.1479,172.6245,0.0000,0.0000,0.0000,0.0000,0.0000,nothing
51520,-0.1993,0.0713,-0.0134,0.3412,1.2019,-9.7166,1.8272,7.1379,172.6296,0.0000,0.0000,0.0000,0.0000,0.0000,nothing
51636,-0.2065,0.0784,-0.0174,0.3352,1.2366,-9.7525,1.8398,7.1464,172.6182,0.0000,0.0000,0.0000,0.0000,0.0000,nothing
51752,-0.1975,0.0758,0.0136,0.2837,1.2145,-9.7262,1.8217,7.1432,172.6258,0.0000,0.0000,0.0000,0.0000,0.0000,nothing
51868,-0.1975,0.0551,0.0558,0.3154,1.2187,-9.7573,1.8232,7.1404,172.6281,0.0000,0.0000,0.0000,0.0000,0.0000,nothing
51984,-0.2136,0.0858,-0.0420,0.3292,1.2337,-9.7412,1.8329,7.1478,172.6186,0.0000,0.0000,0.0000,0.0000,0.0000,nothing
52100,-0.1842,0.0965,0.0023,0.3071,1.2169,-9.7489,1.8287,7.1441,172.6232,0.0000,0.0000,0.0000,0.0000,0.0000,nothing
52216,-0.1928,0.0892,-0.0161,0.3244,1.2355,-9.7017,1.8358,7.1550,172.6108,0.0000,0.0000,0.0000,0.0000,0.0000,nothing
52332,-0.2194,0.0414,-0.0165,0.2951,1.2271,-9.7256,1.8246,7.1583,172.6105,0.0000,0.0000,0.0000,0.0000,0.0000,nothing
52448,-0.2245,0.0761,0.0791,0.3202,1.2372,-9.7268,1.8292,7.1670,172.6009,0.0000,0.0000,0.0000,0.0000,0.0000,nothing
52564,-0.2184,0.0774,0.0648,0.2861,1.2301,-9.7214,1.8136,7.1711,172.6008,0.0000,0.0000,0.0000,0.0000,0.0000,nothing
52680,-0.2053,0.0637,0.0957,0.2891,1.1959,-9.7328,1.8011,7.1542,172.6202,0.0000,0.0000,0.0000,0.0000,0.0000,nothing
52796,-0.1735,0.0759,-0.0641,0.3585,1.1983,-9.7465,1.8301,7.1393,172.6275,0.0000,0.0000,0.0000,0.0000,0.0000,nothing
52912,-0.1947,0.0646,0.0564,0.2825,1.2402,-9.7513,1.8117,7.1499,172.6218,0.0000,0.0000,0.0000,0.0000,0.0000,nothing
53028,-0.2301,0.0427,-0.0154,0.3023,1.2163,-9.7573,1.8066,7.1451,172.6277,0.0000,0.0000,0.0000,0.0000,0.0000,nothing
53144,-0.1890,0.0634,-0.0170,0.3154,1.2396,-9.7447,1.8099,7.1552,172.6171,0.0000,0.0000,0.0000,0.0000,0.0000,nothing
53260,-0.2232,0.0581,0.0284,0.2646,1.1906,-9.7471,1.7832,7.1358,172.6425,0.0000,0.0000,0.0000,0.0000,0.0000,nothing
53376,-0.2173,0.0938,0.0406,0.1796,1.2091,-9.7609,1.7094,7.1283,172.6675,0.0000,0.0000,0.0000,0.0000,0.0000,nothing
53492,-0.1896,0.0815,0.0969,0.1742,1.1989,-9.7184,1.6405,7.1187,172.6928,0.0000,0.0000,0.0000,0.0000,0.0000,nothing
53608,-0.1613,0.0739,-0.0769,0.3119,1.2175,-9.7579,1.6582,7.1177,172.6898,0.0000,0.0000,0.0000,0.0000,0.0000,nothing
53724,-0.1978,0.0720,0.0586,0.2951,1.1965,-9.7442,1.6645,7.1057,172.7000,0.0000,0.0000,0.0000,0.0000,0.0000,nothing
53840,-0.2136,0.0578,-0.1427,0.3334,1.2139,-9.7412,1.6926,7.1050,172.6941,0.0000,0.0000,0.0000,0.0000,0.0000,nothing
53956,-0.2308,0.0795,-0.0181,0.3095,1.2283,-9.7633,1.7035,7.1112,172.6855,0.0000,0.0000,0.0000,0.0000,0.0000,nothing
54072,-0.2048,0.0525,0.0035,0.3023,1.1965,-9.7651,1.7091,7.0983,172.6967,0.0000,0.0000,0.0000,0.0000,0.0000,nothing
54188,-0.1727,0.0667,0.0316,0.2442,1.2576,-9.7591,1.6803,7.1226,172.6799,0.0000,0.0000,0.0000,0.0000,0.0000,nothing
54304,-0.2048,0.0667,0.0010,0.3065,1.2325,-9.7825,1.6904,7.1281,172.6722,0.0000,0.0000,0.0000,0.0000,0.0000,nothing
54420,-0.1858,0.0687,0.0288,0.3532,1.2121,-9.7328,1.7275,7.1247,172.6667,0.0000,0.0000,0.0000,0.0000,0.0000,nothing
54536,-0.2234,0.0528,-0.0781,0.3041,1.2325,-9.7340,1.7323,7.1335,172.6570,0.0000,0.0000,0.0000,0.0000,0.0000,nothing
54652,-0.2000,0.0682,-0.0660,0.3573,1.2420,-9.7322,1.7676,7.1470,172.6355,0.0000,0.0000,0.0000,0.0000,0.0000,nothing
54768,-0.2262,0.0484,0.0158,0.2951,1.2205,-9.7100,1.7636,7.1483,172.6351,0.0000,0.0000,0.0000,0.0000,0.0000,nothing
54884,-0.1877,0.0660,0.0630,0.3047,1.2229,-9.7627,1.7646,7.1471,172.6360,0.0000,0.0000,0.0000,0.0000,0.0000,nothing
55000,-0.1851,0.0680,-0.0041,0.2807,1.1965,-9.8082,1.7508,7.1276,172.6584,0.0000,0.0000,0.0000,0.0000,0.0000,nothing
55116,-0.1873,0.0547,0.0673,0.3250,1.2007,-9.7471,1.7653,7.1167,172.6654,0.0000,0.0000,0.0000,0.0000,0.0000,nothing
55232,-0.1669,0.0781,0.0012,0.3412,1.1900,-9.7471,1.7877,7.1007,172.6755,0.0000,0.0000,0.0000,0.0000,0.0000,nothing
55348,-0.1864,0.0521,0.0608,0.3148,1.1942,-9.7537,1.7925,7.0883,172.6864,0.0000,0.0000,0.0000,0.0000,0.0000,nothing
55464,-0.1622,0.0680,-0.0517,0.3346,1.1989,-9.7190,1.8089,7.0823,172.6881,0.0000,0.0000,0.0000,0.0000,0.0000,nothing
55580,-0.1894,0.0762,-0.0204,0.2903,1.1953,-9.7011,1.7981,7.0762,172.6966,0.0000,0.0000,0.0000,0.0000,0.0000,nothing
55696,-0.1902,0.0663,-0.0487,0.3406,1.2133,-9.7663,1.8166,7.0764,172.6919,0.0000,0.0000,0.0000,0.0000,0.0000,nothing
55812,-0.1944,0.0683,-0.0022,0.3214,1.2372,-9.7208,1.8228,7.0936,172.6736,0.0000,0.0000,0.0000,0.0000,0.0000,nothing
55928,-0.1985,0.0598,0.0061,0.3148,1.1858,-9.7382,1.8243,7.0782,172.6882,0.0000,0.0000,0.0000,0.0000,0.0000,nothing
56044,-0.1846,0.0609,-0.0319,0.3627,1.2337,-9.7316,1.8537,7.0923,172.6670,0.0000,0.0000,0.0000,0.0000,0.0000,nothing
56160,-0.2245,0.0600,-0.0281,0.3119,1.2444,-9.7136,1.8507,7.1127,172.6480,0.0000,0.0000,0.0000,0.0000,0.0000,nothing
56276,-0.2033,0.0513,0.0060,0.3298,1.2205,-9.7501,1.8579,7.1146,172.6444,0.0000,0.0000,0.0000,0.0000,0.0000,nothing
56392,-0.1854,0.0759,-0.0240,0.3029,1.2791,-9.7220,1.8490,7.1523,172.6102,0.0000,0.0000,0.0000,0.0000,0.0000,nothing
56508,-0.2273,0.0664,0.0204,0.3125,1.1834,-9.7424,1.8465,7.1292,172.6331,0.0000,0.0000,0.0000,0.0000,0.0000,nothing
56624,-0.1861,0.0555,-0.0101,0.2634,1.2187,-9.7226,1.8158,7.1305,172.6396,0.0000,0.0000,0.0000,0.0000,0.0000,nothing
56740,-0.2016,0.0510,0.0387,0.3621,1.2067,-9.7358,1.8457,7.1236,172.6388,0.0000,0.0000,0.0000,0.0000,0.0000,nothing
56856,-0.2009,0.0859,0.0022,0.2945,1.2259,-9.7406,1.8329,7.1282,172.6376,0.0000,0.0000,0.0000,0.0000,0.0000,nothing
56972,-0.2009,0.0449,0.0146,0.3262,1.2319,-9.7567,1.8396,7.1346,172.6297,0.0000,0.0000,0.0000,0.0000,0.0000,nothing
57088,-0.2230,0.0821,-0.0551,0.3615,1.2217,-9.7262,1.8669,7.1366,172.6208,0.0000,0.0000,0.0000,0.0000,0.0000,nothing
57204,-0.2183,0.0776,0.0342,0.3292,1.3779,-9.7777,1.8712,7.2251,172.5340,0.0000,0.0000,0.0000,0.0000,0.0000,nothing
57320,-0.2268,0.0672,0.0429,0.3071,1.2115,-9.7268,1.8635,7.2123,172.5484,0.0000,0.0000,0.0000,0.0000,0.0000,nothing
57436,-0.2023,0.0661,-0.0179,0.2831,1.2091,-9.7801,1.8416,7.1955,172.5702,0.0000,0.0000,0.0000,0.0000,0.0000,nothing
57552,-0.2093,0.1140,0.0267,0.3346,1.2516,-9.7154,1.8531,7.2095,172.5537,0.0000,0.0000,0.0000,0.0000,0.0000,nothing
57668,-0.1771,0.0552,0.0041,0.3041,1.1924,-9.7250,1.8456,7.1873,172.5771,0.0000,0.0000,0.0000,0.0000,0.0000,nothing
57784,-0.1966,0.0648,0.0731,0.3639,1.2205,-9.7274,1.8736,7.1832,172.5740,0.0000,0.0000,0.0000,0.0000,0.0000,nothing
57900,-0.2128,0.0995,0.0023,0.2795,1.2462,-9.7412,1.8492,7.1937,172.5700,0.0000,0.0000,0.0000,0.0000,0.0000,nothing
58016,-0.2232,0.0843,0.0378,0.3083,1.2450,-9.7501,1.8439,7.2016,172.5636,0.0000,0.0000,0.0000,0.0000,0.0000,nothing
58132,-0.2082,0.0619,-0.0080,0.3418,1.2133,-9.7268,1.8592,7.1921,172.5690,0.0000,0.0000,0.0000,0.0000,0.0000,nothing
58248,-0.1894,0.0889,0.0139,0.3609,1.2355,-9.7208,1.8842,7.1967,172.5582,0.0000,0.0000,0.0000,0.0000,0.0000,nothing
58364,-0.2179,0.0530,-0.0038,0.2526,1.2133,-9.7340,1.8433,7.1873,172.5777,0.0000,0.0000,0.0000,0.0000,0.0000,nothing
58480,-0.1990,0.0517,-0.0191,0.3268,1.1876,-9.7627,1.8493,7.1617,172.6009,0.0000,0.0000,0.0000,0.0000,0.0000,nothing
58596,-0.1981,0.0762,0.0128,0.3137,1.2109,-9.6927,1.8483,7.1573,172.6055,0.0000,0.0000,0.0000,0.0000,0.0000,nothing
58712,-0.1779,0.0788,-0.0068,0.2819,1.2049,-9.7525,1.8278,7.1456,172.6220,0.0000,0.0000,0.0000,0.0000,0.0000,nothing
58828,-0.2106,0.1018,0.0657,0.3292,1.2277,-9.7430,1.8370,7.1488,172.6165,0.0000,0.0000,0.0000,0.0000,0.0000,nothing
58944,-0.1665,0.0796,0.0034,0.3023,1.2552,-9.7292,1.8298,7.1687,172.5991,0.0000,0.0000,0.0000,0.0000,0.0000,nothing
59060,-0.2424,0.0387,0.0102,0.3178,1.1858,-9.7465,1.8323,7.1451,172.6213,0.0000,0.0000,0.0000,0.0000,0.0000,nothing
59176,-0.1802,0.0394,-0.0359,0.2975,1.2438,-9.7406,1.8226,7.1580,172.6113,0.0000,0.0000,0.0000,0.0000,0.0000,nothing
59292,-0.1985,0.0658,-0.0117,0.3448,1.1822,-9.7424,1.8415,7.1336,172.6301,0.0000,0.0000,0.0000,0.0000,0.0000,nothing
59408,-0.1876,0.0600,0.0309,0.2532,1.2037,-9.7286,1.8054,7.1254,172.6472,0.0000,0.0000,0.0000,0.0000,0.0000,nothing
59524,-0.2196,0.0792,0.0206,0.3478,1.2480,-9.7376,1.8277,7.1428,172.6247,0.0000,0.0000,0.0000,0.0000,0.0000,nothing
59640,-0.1763,0.0616,-0.0234,0.2963,1.2301,-9.7160,1.8183,7.1497,172.6204,0.0000,0.0000,0.0000,0.0000,0.0000,nothing
59756,-0.1870,0.0594,0.0038,0.3723,1.2097,-9.7262,1.8539,7.1432,172.6177,0.0000,0.0000,0.0000,0.0000,0.0000,nothing
59872,-0.1798,0.0447,0.0025,0.2957,1.2384,-9.6999,1.8418,7.1561,172.6083,0.0000,0.0000,0.0000,0.0000,0.0000,nothing
59988,-0.2300,0.0686,0.0853,0.3418,1.2522,-9.7465,1.8568,7.1722,172.5889,0.0000,0.0000,0.0000,0.0000,0.0000,nothing
60104,-0.2109,0.0709,-0.0322,0.2975,1.2432,-9.7340,1.8448,7.1825,172.5820,0.0000,0.0000,0.0000,0.0000,0.0000,nothing
60220,-0.1909,0.0780,-0.0320,0.3717,1.2025,-9.7196,1.8776,7.1690,172.5866,0.0000,0.0000,0.0000,0.0000,0.0000,nothing
60336,-0.1797,0.0483,-0.0072,0.4064,1.2343,-9.7651,1.9265,7.1719,172.5712,0.0000,0.0000,0.0000,0.0000,0.0000,nothing
60452,-0.1934,0.0311,-0.0018,0.3250,1.1732,-9.7489,1.9234,7.1405,172.6023,0.0000,0.0000,0.0000,0.0000,0.0000,nothing
60568,-0.1704,0.0697,0.0309,0.2759,1.2259,-9.7148,1.8926,7.1454,172.6057,0.0000,0.0000,0.0000,0.0000,0.0000,nothing
60684,-0.2313,0.0784,-0.0252,0.3849,1.2169,-9.7304,1.9281,7.1432,172.5986,0.0000,0.0000,0.0000,0.0000,0.0000,nothing
60800,-0.2147,0.0578,0.0030,0.3214,1.2480,-9.7202,1.9231,7.1601,172.5835,0.0000,0.0000,0.0000,0.0000,0.0000,nothing
60916,-0.2397,0.0868,0.0301,0.3137,1.2355,-9.7202,1.9142,7.1680,172.5782,0.0000,0.0000,0.0000,0.0000,0.0000,nothing
61032,-0.2188,0.0886,-0.0413,0.2843,1.2247,-9.7322,1.8888,7.1682,172.5846,0.0000,0.0000,0.0000,0.0000,0.0000,nothing
61148,-0.2206,0.0601,-0.0519,0.3573,1.1720,-9.7232,1.9089,7.1382,172.6084,0.0000,0.0000,0.0000,0.0000,0.0000,nothing
61264,-0.1971,0.0585,0.0675,0.2873,1.2175,-9.7388,1.8856,7.1367,172.6159,0.0000,0.0000,0.0000,0.0000,0.0000,nothing
61380,-0.1782,0.0590,-0.0724,0.4064,1.2313,-9.7322,1.9343,7.1435,172.5966,0.0000,0.0000,0.0000,0.0000,0.0000,nothing
61496,-0.2009,0.0316,-0.1078,0.3214,1.2372,-9.7591,1.9280,7.1513,172.5907,0.0000,0.0000,0.0000,0.0000,0.0000,nothing
61612,-0.1748,0.0604,-0.0106,0.3238,1.2390,-9.7244,1.9244,7.1619,172.5814,0.0000,0.0000,0.0000,0.0000,0.0000,nothing
61728,-0.2378,0.0642,0.0334,0.3065,1.1888,-9.7585,1.9105,7.1399,172.6064,0.0000,0.0000,0.0000,0.0000,0.0000,nothing
61844,-0.1526,0.0533,0.0055,0.3454,1.1762,-9.7418,1.9211,7.1139,172.6287,0.0000,0.0000,0.0000,0.0000,0.0000,nothing
61960,-0.2180,0.0622,0.0106,0.3148,1.1882,-9.7645,1.9123,7.0959,172.6484,0.0000,0.0000,0.0000,0.0000,0.0000,nothing
62076,-0.1570,0.0371,0.0645,0.2771,1.2211,-9.7412,1.8827,7.1005,172.6516,0.0000,0.0000,0.0000,0.0000,0.0000,nothing
62192,-0.1982,0.0890,0.0534,0.3316,1.2504,-9.7681,1.8873,7.1196,172.6320,0.0000,0.0000,0.0000,0.0000,0.0000,nothing
62308,-0.1625,0.0417,-0.0401,0.3909,1.1774,-9.7406,1.9267,7.0963,172.6442,0.0000,0.0000,0.0000,0.0000,0.0000,nothing
62424,-0.1476,0.0529,-0.0431,0.2801,1.1936,-9.7537,1.8973,7.0841,172.6637,0.0000,0.0000,0.0000,0.0000,0.0000,nothing
62540,-0.1576,0.0718,-0.0307,0.3113,1.2438,-9.7340,1.8893,7.1035,172.6471,0.0000,0.0000,0.0000,0.0000,0.0000,nothing
62656,-0.2320,0.0589,-0.0236,0.3717,1.2127,-9.7202,1.9176,7.1038,172.6394,0.0000,0.0000,0.0000,0.0000,0.0000,nothing
62772,-0.1767,0.0626,-0.0146,0.3190,1.2307,-9.7238,1.9123,7.1143,172.6306,0.0000,0.0000,0.0000,0.0000,0.0000,nothing
62888,-0.2397,0.0698,-0.0072,0.3148,1.2001,-9.7292,1.9050,7.1057,172.6408,0.0000,0.0000,0.0000,0.0000,0.0000,nothing
63004,-0.2027,0.0620,0.0843,0.2939,1.2163,-9.7376,1.8861,7.1068,172.6447,0.0000,0.0000,0.0000,0.0000,0.0000,nothing
63120,-0.2146,0.0675,0.0055,0.3657,1.1534,-9.7555,1.9107,7.0699,172.6739,0.0000,0.0000,0.0000,0.0000,0.0000,nothing
63236,-0.1836,0.0278,0.0450,0.2735,1.2025,-9.7220,1.8796,7.0678,172.6841,0.0000,0.0000,0.0000,0.0000,0.0000,nothing
63352,-0.1875,0.0635,0.0947,0.3388,1.1505,-9.7687,1.8890,7.0322,172.7160,0.0000,0.0000,0.0000,0.0000,0.0000,nothing
63468,-0.1684,0.0438,-0.0266,0.3178,1.2055,-9.7226,1.8859,7.0354,172.7137,0.0000,0.0000,0.0000,0.0000,0.0000,nothing
63584,-0.2026,0.0639,0.0987,0.3520,1.1965,-9.7567,1.9024,7.0306,172.7140,0.0000,0.0000,0.0000,0.0000,0.0000,nothing
63700,-0.2018,0.0589,-0.0174,0.2460,1.2265,-9.7202,1.8561,7.0465,172.7108,0.0000,0.0000,0.0000,0.0000,0.0000,nothing
63816,-0.1883,0.0387,0.0180,0.3585,1.2163,-9.7286,1.8799,7.0540,172.6974,0.0000,0.0000,0.0000,0.0000,0.0000,nothing
63932,-0.2061,0.0684,-0.0097,0.2999,1.2444,-9.7256,1.8671,7.0774,172.6780,0.0000,0.0000,0.0000,0.0000,0.0000,nothing
64048,-0.1919,0.0664,0.0359,0.3466,1.1876,-9.7567,1.8824,7.0632,172.6878,0.0000,0.0000,0.0000,0.0000,0.0000,nothing
64164,-0.1836,0.0982,0.0409,0.2861,1.2151,-9.7250,1.8614,7.0687,172.6879,0.0000,0.0000,0.0000,0.0000,0.0000,nothing
64280,-0.1680,0.0601,-0.0074,0.3615,1.2091,-9.7394,1.8862,7.0691,172.6811,0.0000,0.0000,0.0000,0.0000,0.0000,nothing
64396,-0.2427,0.0424,0.0590,0.3101,1.1738,-9.7400,1.8786,7.0490,172.7025,0.0000,0.0000,0.0000,0.0000,0.0000,nothing
64512,-0.2087,0.0753,0.0015,0.2855,1.1726,-9.7627,1.8570,7.0287,172.7277,0.0000,0.0000,0.0000,0.0000,0.0000,nothing
64628,-0.1815,0.0568,-0.0022,0.2957,1.1918,-9.7471,1.8438,7.0226,172.7370,0.0000,0.0000,0.0000,0.0000,0.0000,nothing
64744,-0.2065,0.0603,-0.0301,0.2652,1.1720,-9.7316,1.8144,7.0068,172.7598,0.0000,0.0000,0.0000,0.0000,0.0000,nothing
64860,-0.1684,0.0468,-0.0270,0.3532,1.1618,-9.7609,1.8388,6.9845,172.7752,0.0000,0.0000,0.0000,0.0000,0.0000,nothing
64976,-0.1550,0.0583,0.0150,0.2676,1.2396,-9.7154,1.8115,7.0128,172.7547,0.0000,0.0000,0.0000,0.0000,0.0000,nothing
65092,-0.1854,0.0469,0.0365,0.3699,1.1798,-9.7543,1.8460,7.0007,172.7577,0.0000,0.0000,0.0000,0.0000,0.0000,nothing
65208,-0.2042,0.0663,0.0127,0.2801,1.2384,-9.7525,1.8246,7.0241,172.7405,0.0000,0.0000,0.0000,0.0000,0.0000,nothing
65324,-0.1680,0.0731,0.0115,0.3466,1.1930,-9.7328,1.8445,7.0200,172.7393,0.0000,0.0000,0.0000,0.0000,0.0000,nothing
65440,-0.1996,0.0487,-0.0649,0.4100,1.2492,-9.7262,1.8995,7.0493,172.6968,0.0000,0.0000,0.0000,0.0000,0.0000,nothing
65556,-0.1903,0.0686,0.0635,0.1616,1.2522,-9.7597,1.8034,7.0755,172.6960,0.0000,0.0000,0.0000,0.0000,0.0000,nothing
65672,-0.2054,0.0926,-0.0026,0.4411,1.2013,-9.7483,1.8803,7.0699,172.6819,0.0000,0.0000,0.0000,0.0000,0.0000,nothing
65788,-0.2060,0.0594,0.0049,0.3125,1.2480,-9.7328,1.8747,7.0932,172.6608,0.0000,0.0000,0.0000,0.0000,0.0000,nothing
65904,-0.1926,0.0643,0.0252,0.2819,1.1648,-9.7340,1.8520,7.0660,172.6929,0.0000,0.0000,0.0000,0.0000,0.0000,nothing
66020,-0.1845,0.0594,0.0042,0.3065,1.2732,-9.7130,1.8460,7.1058,172.6560,0.0000,0.0000,0.0000,0.0000,0.0000,nothing
66136,-0.2110,0.0479,0.0823,0.3741,1.2109,-9.7747,1.8790,7.1009,172.6523,0.0000,0.0000,0.0000,0.0000,0.0000,nothing
66252,-0.2286,0.0521,-0.0085,0.2909,1.2067,-9.7442,1.8608,7.0964,172.6612,0.0000,0.0000,0.0000,0.0000,0.0000,nothing
66368,-0.1937,0.0776,-0.0862,0.2831,1.1989,-9.7549,1.8397,7.0872,172.6756,0.0000,0.0000,0.0000,0.0000,0.0000,nothing
66484,-0.1881,0.0744,0.0596,0.3436,1.1947,-9.7382,1.8563,7.0775,172.6807,0.0000,0.0000,0.0000,0.0000,0.0000,nothing
66600,-0.1868,0.0622,-0.0579,0.2867,1.2289,-9.7705,1.8374,7.0863,172.6770,0.0000,0.0000,0.0000,0.0000,0.0000,nothing
66716,-0.2012,0.0725,0.0417,0.3633,1.2163,-9.7250,1.8659,7.0901,172.6660,0.0000,0.0000,0.0000,0.0000,0.0000,nothing
66832,-0.1941,0.0462,-0.0431,0.2957,1.2181,-9.7669,1.8514,7.0917,172.6682,0.0000,0.0000,0.0000,0.0000,0.0000,nothing
66948,-0.1956,0.0684,0.0653,0.2741,1.1936,-9.7477,1.8261,7.0803,172.6856,0.0000,0.0000,0.0000,0.0000,0.0000,nothing
67064,-0.1830,0.0785,-0.0424,0.3071,1.2037,-9.7280,1.8230,7.0773,172.6893,0.0000,0.0000,0.0000,0.0000,0.0000,nothing
67180,-0.2072,0.0691,0.0371,0.3975,1.2450,-9.7046,1.8731,7.1000,172.6546,0.0000,0.0000,0.0000,0.0000,0.0000,nothing
67296,-0.2566,0.0840,0.0341,0.2388,1.3228,-9.7597,1.8246,7.1619,172.6070,0.0000,0.0000,0.0000,0.0000,0.0000,nothing
67412,-0.2301,0.0698,0.0155,0.3286,1.2295,-9.7322,1.8340,7.1653,172.6013,0.0000,0.0000,0.0000,0.0000,0.0000,nothing
67528,-0.2252,0.0608,0.0368,0.3226,1.2127,-9.7202,1.8392,7.1595,172.6056,0.0000,0.0000,0.0000,0.0000,0.0000,nothing
67644,-0.2241,0.0718,0.0273,0.2993,1.1953,-9.7669,1.8295,7.1410,172.6260,0.0000,0.0000,0.0000,0.0000,0.0000,nothing
67760,-0.1523,0.0706,0.0278,0.2951,1.1654,-9.7501,1.8187,7.1082,172.6605,0.0000,0.0000,0.0000,0.0000,0.0000,nothing
67876,-0.1406,0.0567,-0.0443,0.3532,1.1517,-9.7860,1.8422,7.0680,172.6935,0.0000,0.0000,0.0000,0.0000,0.0000,nothing
67992,-0.1872,0.0818,0.0300,0.2891,1.2480,-9.7040,1.8273,7.0936,172.6725,0.0000,0.0000,0.0000,0.0000,0.0000,nothing
68108,-0.1714,0.0551,0.0263,0.3753,1.2343,-9.7783,1.8627,7.1032,172.6542,0.0000,0.0000,0.0000,0.0000,0.0000,nothing
68224,-0.1547,0.0457,-0.0270,0.3813,1.2480,-9.7340,1.8989,7.1229,172.6257,0.0000,0.0000,0.0000,0.0000,0.0000,nothing
68340,-0.2005,0.0829,0.0548,0.3484,1.2582,-9.7124,1.9127,7.1482,172.5977,0.0000,0.0000,0.0000,0.0000,0.0000,nothing
68456,-0.1933,0.0729,-0.0056,0.2921,1.2588,-9.7394,1.8918,7.1696,172.5825,0.0000,0.0000,0.0000,0.0000,0.0000,nothing
68572,-0.2154,0.0724,-0.0365,0.3178,1.2145,-9.7136,1.8886,7.1649,172.5878,0.0000,0.0000,0.0000,0.0000,0.0000,nothing
68688,-0.2044,0.1039,0.0008,0.3089,1.2229,-9.7424,1.8799,7.1635,172.5914,0.0000,0.0000,0.0000,0.0000,0.0000,nothing
68804,-0.1997,0.0575,-0.0089,0.3089,1.2169,-9.7262,1.8724,7.1600,172.5968,0.0000,0.0000,0.0000,0.0000,0.0000,nothing
68920,-0.2233,0.1029,-0.1138,0.3753,1.2187,-9.7561,1.9039,7.1555,172.5930,0.0000,0.0000,0.0000,0.0000,0.0000,nothing
69036,-0.2458,0.0620,0.0549,0.2969,1.2049,-9.7166,1.8872,7.1465,172.6060,0.0000,0.0000,0.0000,0.0000,0.0000,nothing
69152,-0.2237,0.0871,-0.0105,0.2155,1.2893,-9.7322,1.8242,7.1864,172.5833,0.0000,0.0000,0.0000,0.0000,0.0000,nothing
69268,-0.2124,0.0868,0.0635,0.3196,1.2019,-9.7507,1.8281,7.1701,172.5982,0.0000,0.0000,0.0000,0.0000,0.0000,nothing
69384,-0.2358,0.0575,0.0472,0.3208,1.1936,-9.7483,1.8324,7.1507,172.6158,0.0000,0.0000,0.0000,0.0000,0.0000,nothing
69500,-0.1835,0.0634,-0.0181,0.3125,1.2283,-9.7142,1.8320,7.1559,172.6109,0.0000,0.0000,0.0000,0.0000,0.0000,nothing
69616,-0.2086,0.0519,-0.0033,0.3418,1.2193,-9.7412,1.8482,7.1533,172.6094,0.0000,0.0000,0.0000,0.0000,0.0000,nothing
69732,-0.1740,0.0652,-0.0101,0.4322,1.1666,-9.7064,1.9163,7.1228,172.6213,0.0000,0.0000,0.0000,0.0000,0.0000,nothing
69848,-0.2087,0.0682,0.0249,0.2400,1.2468,-9.7364,1.8647,7.1401,172.6180,0.0000,0.0000,0.0000,0.0000,0.0000,nothing
69964,-0.1865,0.0731,-0.0420,0.3597,1.1989,-9.7088,1.8888,7.1296,172.6219,0.0000,0.0000,0.0000,0.0000,0.0000,nothing
70080,-0.2181,0.0410,0.0622,0.4561,1.2283,-9.7442,1.9659,7.1344,172.5970,0.0000,0.0000,0.0000,0.0000,0.0000,nothing
70196,-0.1794,0.0590,-0.0915,0.4208,1.1235,-9.7675,2.0145,7.0764,172.6396,0.0000,0.0000,0.0000,0.0000,0.0000,nothing
70312,-0.1693,0.0637,0.0367,0.3059,1.2049,-9.6987,1.9924,7.0766,172.6455,0.0000,0.0000,0.0000,0.0000,0.0000,nothing
70428,-0.1630,0.0746,-0.1194,0.2771,1.0858,-9.7364,1.9553,7.0051,172.7245,0.0000,0.0000,0.0000,0.0000,0.0000,nothing
70544,-0.1816,0.0615,0.0896,0.2825,1.1977,-9.7046,1.9253,7.0079,172.7299,0.0000,0.0000,0.0000,0.0000,0.0000,nothing
70660,-0.2264,0.0597,0.0294,0.4669,1.1798,-9.8399,2.0033,6.9899,172.7259,0.0000,0.0000,0.0000,0.0000,0.0000,nothing
70776,-0.2594,0.0468,-0.0007,0.2095,1.2121,-9.7136,1.9258,7.0021,172.7354,0.0000,0.0000,0.0000,0.0000,0.0000,nothing
70892,-0.1602,0.0626,-0.0104,0.0676,1.0798,-9.6957,1.7738,6.9379,172.8367,0.0000,0.0000,0.0000,0.0000,0.0000,nothing
71008,-0.1539,0.0808,-0.0067,0.3651,1.2313,-9.7489,1.8093,6.9635,172.8030,0.0000,0.0000,0.0000,0.0000,0.0000,nothing
71124,-0.1905,0.0198,-0.0252,0.2215,1.2402,-9.8291,1.7560,6.9864,172.7942,0.0000,0.0000,0.0000,0.0000,0.0000,nothing
71240,-0.2042,0.0106,0.0233,0.3484,1.1678,-9.7160,1.7842,6.9727,172.8004,0.0000,0.0000,0.0000,0.0000,0.0000,nothing
71356,-0.1845,0.0420,-0.1070,0.4172,1.1505,-9.7328,1.8495,6.9490,172.8067,0.0000,0.0000,0.0000,0.0000,0.0000,nothing
71472,-0.1891,0.0774,0.0314,0.4232,1.2187,-9.6633,1.9129,6.9721,172.7677,0.0000,0.0000,0.0000,0.0000,0.0000,nothing
71588,-0.3048,0.0735,-0.0397,0.2616,1.3803,-9.7076,1.8745,7.0839,172.6699,0.0000,0.0000,0.0000,0.0000,0.0000,nothing
71704,-0.1490,0.2349,0.0653,0.6848,0.5357,-9.2378,2.0990,6.7257,172.9515,0.0000,0.0000,0.0000,0.0000,0.0000,nothing
71820,-0.2293,0.0025,0.0025,0.4687,0.7859,-10.0015,2.1583,6.4961,173.1519,0.0000,0.0000,0.0000,0.0000,0.0000,nothing
71936,-0.1416,-0.0240,0.0064,0.3041,1.0086,-9.8866,2.1171,6.4277,173.2298,0.0000,0.0000,0.0000,0.0000,0.0000,nothing
72052,-0.0916,-0.0061,-0.0289,0.1670,1.1810,-9.7023,2.0036,6.4788,173.2159,0.0000,0.0000,0.0000,0.0000,0.0000,nothing
72168,-0.1887,0.0571,-0.0746,0.3095,1.2097,-9.7023,1.9845,6.5412,173.1618,0.0000,0.0000,0.0000,0.0000,0.0000,nothing
72284,-0.1842,0.0412,0.0701,0.2508,1.2929,-9.7017,1.9329,6.6459,173.0762,0.0000,0.0000,0.0000,0.0000,0.0000,nothing
72400,-0.1831,0.0380,-0.0008,0.5513,1.1133,-9.7926,2.0607,6.6290,173.0554,0.0000,0.0000,0.0000,0.0000,0.0000,nothing
72516,-0.2335,0.0825,0.0095,0.2340,1.3282,-9.6777,1.9921,6.7470,172.9624,0.0000,0.0000,0.0000,0.0000,0.0000,nothing
72632,-0.2455,0.0977,0.0281,0.3340,1.2396,-9.7639,1.9872,6.7957,172.9171,0.0000,0.0000,0.0000,0.0000,0.0000,nothing
72748,-0.2323,0.0721,0.0055,0.2574,1.2337,-9.7322,1.9387,6.8384,172.8896,0.0000,0.0000,0.0000,0.0000,0.0000,nothing
72864,-0.1772,0.0855,0.0417,0.3765,1.1223,-9.7597,1.9644,6.8100,172.9098,0.0000,0.0000,0.0000,0.0000,0.0000,nothing
72980,-0.1366,0.0521,-0.0194,0.3478,1.1959,-9.7585,1.9706,6.8273,172.8914,0.0000,0.0000,0.0000,0.0000,0.0000,nothing
73096,-0.2090,0.0829,0.0536,0.2945,1.2432,-9.7070,1.9459,6.8740,172.8533,0.0000,0.0000,0.0000,0.0000,0.0000,nothing
73212,-0.1692,0.0727,0.0237,0.3226,1.2067,-9.7292,1.9398,6.8933,172.8364,0.0000,0.0000,0.0000,0.0000,0.0000,nothing
73328,-0.1939,0.0695,-0.0035,0.3490,1.1846,-9.7076,1.9502,6.8992,172.8279,0.0000,0.0000,0.0000,0.0000,0.0000,nothing
73444,-0.1866,0.0558,-0.0365,0.2682,1.1918,-9.7555,1.9114,6.9055,172.8324,0.0000,0.0000,0.0000,0.0000,0.0000,nothing
73560,-0.1662,0.0712,-0.0074,0.3861,1.1774,-9.7226,1.9460,6.9049,172.8235,0.0000,0.0000,0.0000,0.0000,0.0000,nothing
73676,-0.1919,0.0598,0.0170,0.2400,1.1714,-9.7741,1.8908,6.8976,172.8454,0.0000,0.0000,0.0000,0.0000,0.0000,nothing
73792,-0.1866,0.0612,0.0344,0.3717,1.1738,-9.7346,1.9189,6.8950,172.8405,0.0000,0.0000,0.0000,0.0000,0.0000,nothing
73908,-0.1605,0.0560,-0.0120,0.2610,1.1636,-9.7232,1.8797,6.8877,172.8580,0.0000,0.0000,0.0000,0.0000,0.0000,nothing
74024,-0.1793,0.0556,0.0299,0.3813,1.2145,-9.7418,1.9142,6.9091,172.8282,0.0000,0.0000,0.0000,0.0000,0.0000,nothing
74140,-0.1821,0.0706,0.0143,0.2753,1.2247,-9.7352,1.8835,6.9349,172.8114,0.0000,0.0000,0.0000,0.0000,0.0000,nothing
74256,-0.1628,0.0412,0.0120,0.3603,1.2355,-9.7190,1.9058,6.9653,172.7762,0.0000,0.0000,0.0000,0.0000,0.0000,nothing
74372,-0.2168,0.0731,-0.0064,0.2729,1.2756,-9.7298,1.8745,7.0154,172.7360,0.0000,0.0000,0.0000,0.0000,0.0000,nothing
74488,-0.2189,0.0687,-0.0348,0.2813,1.2480,-9.7142,1.8516,7.0456,172.7127,0.0000,0.0000,0.0000,0.0000,0.0000,nothing
74604,-0.2322,0.0748,-0.0005,0.3071,1.2408,-9.7172,1.8460,7.0684,172.6921,0.0000,0.0000,0.0000,0.0000,0.0000,nothing
74720,-0.1809,0.0751,-0.0044,0.3597,1.2037,-9.7358,1.8714,7.0659,172.6880,0.0000,0.0000,0.0000,0.0000,0.0000,nothing
74836,-0.2296,0.0798,-0.0086,0.2969,1.2510,-9.7519,1.8572,7.0901,172.6683,0.0000,0.0000,0.0000,0.0000,0.0000,nothing
74952,-0.1795,0.0414,0.0312,0.3783,1.2103,-9.7106,1.8928,7.0910,172.6582,0.0000,0.0000,0.0000,0.0000,0.0000,nothing
75068,-0.1854,0.0604,-0.0878,0.3394,1.2043,-9.7202,1.9020,7.0878,172.6590,0.0000,0.0000,0.0000,0.0000,0.0000,nothing
75184,-0.2064,0.0425,0.0169,0.3077,1.2253,-9.7310,1.8915,7.0963,172.6534,0.0000,0.0000,0.0000,0.0000,0.0000,nothing
75300,-0.1978,0.0297,0.0371,0.2867,1.2271,-9.7322,1.8697,7.1050,172.6507,0.0000,0.0000,0.0000,0.0000,0.0000,nothing
75416,-0.2087,0.0694,0.0053,0.2903,1.1499,-9.7017,1.8530,7.0702,172.6886,0.0000,0.0000,0.0000,0.0000,0.0000,nothing
75532,-0.1543,0.0562,0.0052,0.3238,1.2271,-9.7412,1.8566,7.0808,172.6774,0.0000,0.0000,0.0000,0.0000,0.0000,nothing
75648,0.0796,0.1149,0.0005,0.5872,1.0254,-9.3533,2.0221,7.0003,172.7107,0.0000,0.0000,0.0000,0.0000,0.0000,nothing
75764,-0.1288,0.1374,0.0161,0.0982,1.1918,-9.6574,1.8782,7.0039,172.7462,0.0000,0.0000,0.0000,0.0000,0.0000,nothing
75880,-0.1013,0.0506,-0.0210,0.2496,1.3246,-9.6837,1.8366,7.0823,172.6811,0.0000,0.0000,0.0000,0.0000,0.0000,nothing
75996,-0.1393,0.0604,0.0688,0.3202,1.2702,-9.7693,1.8392,7.1147,172.6490,0.0000,0.0000,0.0000,0.0000,0.0000,nothing
76112,-0.1614,0.0514,0.0286,0.3998,1.2612,-9.7178,1.8891,7.1422,172.6097,0.0000,0.0000,0.0000,0.0000,0.0000,nothing
76228,-0.2199,0.0634,-0.0173,0.3310,1.2504,-9.7154,1.8937,7.1610,172.5903,0.0000,0.0000,0.0000,0.0000,0.0000,nothing
76344,-0.2098,0.0748,0.0203,0.3059,1.2019,-9.7130,1.8833,7.1499,172.6037,0.0000,0.0000,0.0000,0.0000,0.0000,nothing
76460,-0.2014,0.0795,0.0378,0.3262,1.1864,-9.7424,1.8854,7.1288,172.6236,0.0000,0.0000,0.0000,0.0000,0.0000,nothing
76576,-0.1742,0.0703,0.0643,0.3328,1.1942,-9.7418,1.8911,7.1143,172.6361,0.0000,0.0000,0.0000,0.0000,0.0000,nothing
76692,-0.2159,0.0807,-0.0170,0.2676,1.2450,-9.7531,1.8577,7.1302,172.6294,0.0000,0.0000,0.0000,0.0000,0.0000,nothing
76808,-0.2129,0.0931,0.0611,0.3939,1.2145,-9.7573,1.9015,7.1261,172.6220,0.0000,0.0000,0.0000,0.0000,0.0000,nothing
76924,-0.1952,0.0444,0.0397,0.3119,1.1930,-9.7651,1.8929,7.1096,172.6402,0.0000,0.0000,0.0000,0.0000,0.0000,nothing
77040,-0.2033,0.0675,-0.0014,0.2951,1.2127,-9.7717,1.8752,7.1057,172.6485,0.0000,0.0000,0.0000,0.0000,0.0000,nothing
77156,-0.2108,0.0705,0.0166,0.3077,1.2355,-9.7154,1.8676,7.1195,172.6372,0.0000,0.0000,0.0000,0.0000,0.0000,nothing
77272,-0.2045,0.0766,-0.0192,0.3478,1.2205,-9.7471,1.8836,7.1208,172.6318,0.0000,0.0000,0.0000,0.0000,0.0000,nothing
77388,-0.1988,0.0832,-0.0459,0.3005,1.2163,-9.7316,1.8708,7.1208,172.6351,0.0000,0.0000,0.0000,0.0000,0.0000,nothing
77504,-0.2125,0.0702,-0.0090,0.3382,1.2097,-9.7753,1.8804,7.1137,172.6395,0.0000,0.0000,0.0000,0.0000,0.0000,nothing
77620,-0.1892,0.0440,0.0165,0.3579,1.1720,-9.7837,1.9005,7.0849,172.6621,0.0000,0.0000,0.0000,0.0000,0.0000,nothing
77736,-0.1782,0.0582,0.0533,0.3202,1.2031,-9.7382,1.8973,7.0803,172.6673,0.0000,0.0000,0.0000,0.0000,0.0000,nothing
77852,-0.1853,0.0834,0.0026,0.3633,1.2594,-9.7310,1.9197,7.1092,172.6335,0.0000,0.0000,0.0000,0.0000,0.0000,nothing
77968,-0.1930,0.0410,0.0209,0.2921,1.2349,-9.7418,1.8981,7.1204,172.6284,0.0000,0.0000,0.0000,0.0000,0.0000,nothing
78084,-0.2110,0.0799,-0.0560,0.3585,1.2175,-9.7837,1.9166,7.1173,172.6266,0.0000,0.0000,0.0000,0.0000,0.0000,nothing
78200,-0.2232,0.0701,0.0314,0.2885,1.2355,-9.7459,1.8932,7.1277,172.6227,0.0000,0.0000,0.0000,0.0000,0.0000,nothing
78316,-0.1753,0.0307,-0.0277,0.2987,1.1660,-9.7280,1.8785,7.0982,172.6550,0.0000,0.0000,0.0000,0.0000,0.0000,nothing
78432,-0.1498,0.0545,0.0401,0.3148,1.2462,-9.6777,1.8755,7.1216,172.6331,0.0000,0.0000,0.0000,0.0000,0.0000,nothing
78548,-0.2339,0.0783,0.0064,0.3609,1.2013,-9.7483,1.8984,7.1115,172.6369,0.0000,0.0000,0.0000,0.0000,0.0000,nothing
78664,-0.1876,0.0630,-0.0221,0.2364,1.1648,-9.6909,1.8476,7.0857,172.6750,0.0000,0.0000,0.0000,0.0000,0.0000,nothing
78780,-0.1513,0.0878,-0.0416,0.2783,1.1953,-9.7561,1.8250,7.0754,172.6907,0.0000,0.0000,0.0000,0.0000,0.0000,nothing
78896,-0.1575,0.0600,0.0444,0.3544,1.2319,-9.7160,1.8497,7.0899,172.6704,0.0000,0.0000,0.0000,0.0000,0.0000,nothing
79012,-0.2005,0.0643,-0.0199,0.3077,1.2384,-9.7298,1.8444,7.1059,172.6562,0.0000,0.0000,0.0000,0.0000,0.0000,nothing
79128,-0.2000,0.0769,-0.0105,0.3047,1.2325,-9.7076,1.8383,7.1185,172.6456,0.0000,0.0000,0.0000,0.0000,0.0000,nothing
79244,-0.2159,0.0774,0.0484,0.3364,1.2157,-9.7184,1.8512,7.1193,172.6416,0.0000,0.0000,0.0000,0.0000,0.0000,nothing
79360,-0.2345,0.0924,-0.0435,0.3556,1.2402,-9.7280,1.8737,7.1334,172.6221,0.0000,0.0000,0.0000,0.0000,0.0000,nothing
79476,-0.2154,0.0641,-0.0123,0.2861,1.2031,-9.7477,1.8532,7.1234,172.6371,0.0000,0.0000,0.0000,0.0000,0.0000,nothing
79592,-0.1804,0.0654,0.0588,0.3633,1.2067,-9.7681,1.8793,7.1148,172.6387,0.0000,0.0000,0.0000,0.0000,0.0000,nothing
79708,-0.2132,0.0447,-0.0413,0.2729,1.2085,-9.7364,1.8508,7.1106,172.6501,0.0000,0.0000,0.0000,0.0000,0.0000,nothing
79824,-0.2217,0.0686,0.0575,0.3316,1.2031,-9.7447,1.8591,7.1030,172.6553,0.0000,0.0000,0.0000,0.0000,0.0000,nothing
79940,-0.1890,0.0656,-0.0285,0.3166,1.2235,-9.7322,1.8581,7.1088,172.6499,0.0000,0.0000,0.0000,0.0000,0.0000,nothing
80056,-0.1741,0.0697,-0.0131,0.3567,1.1894,-9.7154,1.8810,7.0955,172.6570,0.0000,0.0000,0.0000,0.0000,0.0000,nothing
80172,-0.1875,0.0937,0.0101,0.2634,1.2007,-9.7190,1.8470,7.0900,172.6710,0.0000,0.0000,0.0000,0.0000,0.0000,nothing
80288,-0.1921,0.0939,0.0378,0.3226,1.2606,-9.7250,1.8507,7.1191,172.6418,0.0000,0.0000,0.0000,0.0000,0.0000,nothing
80404,-0.2075,0.0665,-0.0314,0.3765,1.2301,-9.7663,1.8848,7.1246,172.6278,0.0000,0.0000,0.0000,0.0000,0.0000,nothing
80520,-0.2157,0.1039,0.0218,0.2975,1.3785,-9.7286,1.8698,7.2184,172.5409,0.0000,0.0000,0.0000,0.0000,0.0000,nothing
80636,-0.2361,0.0999,-0.0138,0.3693,1.1894,-9.7040,1.8990,7.1949,172.5562,0.0000,0.0000,0.0000,0.0000,0.0000,nothing
80752,-0.2652,0.0435,-0.0034,0.2281,1.0146,-9.7011,1.8434,7.0730,172.6884,0.0000,0.0000,0.0000,0.0000,0.0000,หนึ่ง
80868,-0.0815,0.0413,-0.0281,0.5214,1.3420,-9.5508,1.9668,7.1632,172.5689,0.0000,0.0000,0.0000,0.0000,0.0000,หนึ่ง
80984,-0.2402,0.0928,0.0108,0.3945,1.3492,-9.7172,2.0005,7.2369,172.4888,0.0000,0.0000,0.0000,0.0000,0.0000,หนึ่ง
81100,-0.2815,0.1005,0.0022,0.2700,1.3181,-9.7310,1.9578,7.2844,172.4543,0.0000,0.0000,0.0000,0.0000,0.0000,หนึ่ง
81216,-0.2953,0.0830,0.0349,0.2574,1.1942,-9.7100,1.9128,7.2569,172.4926,0.0000,0.0000,0.0000,0.0000,0.0000,หนึ่ง
81332,-0.2401,0.0609,-0.0170,0.3603,1.1385,-9.7304,1.9321,7.1981,172.5445,0.0000,0.0000,0.0000,0.0000,0.0000,หนึ่ง
81448,-0.2011,0.0624,0.0394,0.3220,1.2061,-9.7382,1.9269,7.1839,172.5595,0.0000,0.0000,0.0000,0.0000,0.0000,หนึ่ง
81564,-0.1937,0.0653,-0.0198,0.2879,1.2390,-9.7124,1.9026,7.1922,172.5578,0.0000,0.0000,0.0000,0.0000,0.0000,หนึ่ง
81680,-0.1899,0.0769,0.0570,0.3358,1.1840,-9.7489,1.9082,7.1650,172.5827,0.0000,0.0000,0.0000,0.0000,0.0000,หนึ่ง
81796,-0.1786,0.0607,0.0194,0.2783,1.2109,-9.7603,1.8794,7.1554,172.5994,0.0000,0.0000,0.0000,0.0000,0.0000,หนึ่ง
81912,-0.2124,0.0708,-0.0256,0.3065,1.1882,-9.7651,1.8699,7.1332,172.6234,0.0000,0.0000,0.0000,0.0000,0.0000,หนึ่ง
82028,-0.2177,0.0777,0.0380,0.3089,1.1995,-9.7346,1.8633,7.1220,172.6359,0.0000,0.0000,0.0000,0.0000,0.0000,หนึ่ง
82144,-0.1999,0.0635,0.0465,0.3280,1.2115,-9.7328,1.8685,7.1189,172.6375,0.0000,0.0000,0.0000,0.0000,0.0000,หนึ่ง
82260,-0.1809,0.0803,-0.0057,0.2945,1.2163,-9.6987,1.8543,7.1215,172.6386,0.0000,0.0000,0.0000,0.0000,0.0000,หนึ่ง
82376,-0.2005,0.0637,0.0022,0.3059,1.1977,-9.7406,1.8473,7.1100,172.6515,0.0000,0.0000,0.0000,0.0000,0.0000,หนึ่ง
82492,-0.2012,0.0762,-0.0354,0.3442,1.2630,-9.7178,1.8638,7.1391,172.6192,0.0000,0.0000,0.0000,0.0000,0.0000,หนึ่ง
82608,-0.1795,0.0828,0.0153,0.4124,1.2869,-9.7322,1.9180,7.1779,172.5677,0.0000,0.0000,0.0000,0.0000,0.0000,หนึ่ง
82724,-0.3635,0.2026,0.0650,0.2933,1.4174,-9.8226,1.8953,7.2820,172.4729,0.0000,0.0000,0.0000,0.0000,0.0000,break_time
82840,-0.2202,0.1178,-0.0204,0.2346,0.9026,-9.7394,1.8435,7.0839,172.6778,0.0000,0.0000,0.0000,0.0000,0.0000,break_time
82956,-0.0514,0.0420,-0.0005,0.3681,1.0786,-9.7741,1.8736,7.0046,172.7467,0.0000,0.0000,0.0000,0.0000,0.0000,break_time
83072,-0.0958,0.0209,-0.0314,0.3358,1.2630,-9.7256,1.8823,7.0436,172.7067,0.0000,0.0000,0.0000,0.0000,0.0000,break_time
83188,-0.1821,0.0654,-0.0180,0.3639,1.2959,-9.7442,1.9062,7.0964,172.6495,0.0000,0.0000,0.0000,0.0000,0.0000,break_time
83304,-0.2154,0.0683,-0.0116,0.3262,1.2450,-9.7465,1.9057,7.1143,172.6323,0.0000,0.0000,0.0000,0.0000,0.0000,break_time
83420,-0.2121,0.0768,-0.0042,0.3256,1.2720,-9.7166,1.9055,7.1482,172.5996,0.0000,0.0000,0.0000,0.0000,0.0000,break_time
83536,-0.2029,0.0686,-0.0274,0.3119,1.2013,-9.7166,1.8974,7.1379,172.6117,0.0000,0.0000,0.0000,0.0000,0.0000,break_time
83652,-0.1999,0.0442,-0.0145,0.3256,1.1965,-9.7717,1.8971,7.1218,172.6274,0.0000,0.0000,0.0000,0.0000,0.0000,break_time
83768,-0.1992,0.0635,-0.0060,0.3376,1.1942,-9.7388,1.9044,7.1082,172.6385,0.0000,0.0000,0.0000,0.0000,0.0000,break_time
83884,-0.1772,0.0920,0.0663,0.2670,1.1971,-9.7376,1.8699,7.0980,172.6573,0.0000,0.0000,0.0000,0.0000,0.0000,break_time
84000,-0.2101,0.0746,0.0093,0.3220,1.1882,-9.7166,1.8713,7.0851,172.6695,0.0000,0.0000,0.0000,0.0000,0.0000,break_time
84116,-0.1974,0.0703,0.0783,0.2957,1.2307,-9.7507,1.8565,7.0956,172.6631,0.0000,0.0000,0.0000,0.0000,0.0000,break_time
84232,-0.1896,0.0588,0.0147,0.2885,1.1983,-9.6975,1.8400,7.0902,172.6726,0.0000,0.0000,0.0000,0.0000,0.0000,break_time
84348,-0.1911,0.0641,0.0266,0.3532,1.2193,-9.7555,1.8618,7.0931,172.6642,0.0000,0.0000,0.0000,0.0000,0.0000,break_time
84464,-0.1824,0.0718,-0.0128,0.2765,1.2229,-9.7424,1.8369,7.0990,172.6648,0.0000,0.0000,0.0000,0.0000,0.0000,break_time
84580,-0.1827,0.0822,-0.0172,0.3370,1.2079,-9.7274,1.8501,7.0965,172.6638,0.0000,0.0000,0.0000,0.0000,0.0000,break_time
84696,-0.2024,0.0793,-0.0060,0.3268,1.1942,-9.7681,1.8553,7.0834,172.6752,0.0000,0.0000,0.0000,0.0000,0.0000,break_time
84812,-0.2056,0.0661,0.0357,0.3328,1.2193,-9.7585,1.8636,7.0869,172.6697,0.0000,0.0000,0.0000,0.0000,0.0000,break_time
84928,-0.2129,0.0686,-0.0218,0.2963,1.2426,-9.7753,1.8495,7.1024,172.6584,0.0000,0.0000,0.0000,0.0000,0.0000,break_time
85044,-0.2045,0.0683,0.0104,0.3065,1.2372,-9.7447,1.8432,7.1154,172.6474,0.0000,0.0000,0.0000,0.0000,0.0000,break_time
85160,-0.2132,0.0821,-0.0299,0.3166,1.2163,-9.7442,1.8436,7.1150,172.6477,0.0000,0.0000,0.0000,0.0000,0.0000,break_time
85276,-0.2029,0.0697,0.0132,0.3280,1.2067,-9.7023,1.8514,7.1121,172.6485,0.0000,0.0000,0.0000,0.0000,0.0000,break_time
85392,-0.2098,0.0755,0.0052,0.3220,1.2331,-9.7507,1.8539,7.1212,172.6390,0.0000,0.0000,0.0000,0.0000,0.0000,break_time
85508,-0.1763,0.0582,0.0254,0.3597,1.2420,-9.7543,1.8781,7.1343,172.6202,0.0000,0.0000,0.0000,0.0000,0.0000,break_time
85624,-0.2063,0.0601,-0.0297,0.3053,1.2378,-9.7184,1.8687,7.1464,172.6109,0.0000,0.0000,0.0000,0.0000,0.0000,break_time
85740,-0.1816,0.0663,0.0919,0.3382,1.2217,-9.7382,1.8792,7.1463,172.6082,0.0000,0.0000,0.0000,0.0000,0.0000,nothing
85856,-0.1798,0.0736,-0.0015,0.3579,1.2277,-9.7573,1.8998,7.1484,172.6009,0.0000,0.0000,0.0000,0.0000,0.0000,nothing
85972,-0.2195,0.0667,-0.0005,0.3059,1.2319,-9.7130,1.8888,7.1560,172.5964,0.0000,0.0000,0.0000,0.0000,0.0000,nothing
86088,-0.2022,0.0691,0.0300,0.3322,1.2067,-9.7172,1.8942,7.1479,172.6029,0.0000,0.0000,0.0000,0.0000,0.0000,nothing
86204,-0.1802,0.0650,0.0459,0.3346,1.2552,-9.7316,1.9001,7.1676,172.5823,0.0000,0.0000,0.0000,0.0000,0.0000,nothing
86320,-0.1873,0.0679,0.0391,0.3981,1.1977,-9.6915,1.9433,7.1549,172.5833,0.0000,0.0000,0.0000,0.0000,0.0000,nothing
86436,-0.2236,0.0657,-0.0131,0.2598,1.2043,-9.7866,1.8997,7.1406,172.6084,0.0000,0.0000,0.0000,0.0000,0.0000,สอง
86552,-0.1258,0.0612,-0.0034,0.3448,1.0930,-9.6759,1.9124,7.0711,172.6723,0.0000,0.0000,0.0000,0.0000,0.0000,สอง
86668,-0.1291,0.0457,0.0244,0.2640,1.2821,-9.7561,1.8748,7.1126,172.6420,0.0000,0.0000,0.0000,0.0000,0.0000,สอง
86784,-0.1689,0.0544,-0.0181,0.3154,1.2803,-9.7184,1.8716,7.1514,172.6052,0.0000,0.0000,0.0000,0.0000,0.0000,สอง
86900,-0.2294,0.0755,0.0138,0.3484,1.2935,-9.7627,1.8871,7.1907,172.5633,0.0000,0.0000,0.0000,0.0000,0.0000,สอง
87016,-0.2060,0.0646,0.0166,0.3376,1.3677,-9.7447,1.8949,7.2703,172.4842,0.0000,0.0000,0.0000,0.0000,0.0000,สอง
87132,-0.1605,0.0299,-0.0219,0.3849,1.1343,-9.6807,1.9313,7.2114,172.5318,0.0000,0.0000,0.0000,0.0000,0.0000,break_time
87248,-0.2705,0.1160,0.0459,0.3292,1.1020,-9.7178,1.9310,7.1371,172.6037,0.0000,0.0000,0.0000,0.0000,0.0000,break_time
87364,-0.1216,0.0863,-0.0383,0.2598,1.0762,-9.6897,1.8908,7.0574,172.6913,0.0000,0.0000,0.0000,0.0000,0.0000,break_time
87480,-0.1520,0.0643,0.0074,0.2676,1.2672,-9.7256,1.8580,7.0937,172.6646,0.0000,0.0000,0.0000,0.0000,0.0000,break_time
87596,-0.2127,0.0710,0.0080,0.3711,1.2672,-9.7418,1.8886,7.1250,172.6264,0.0000,0.0000,0.0000,0.0000,0.0000,break_time
87712,-0.2262,0.0834,0.0671,0.3053,1.2289,-9.7579,1.8775,7.1300,172.6245,0.0000,0.0000,0.0000,0.0000,0.0000,break_time
87828,-0.2393,0.0688,-0.0022,0.3861,1.1756,-9.7298,1.9153,7.1054,172.6384,0.0000,0.0000,0.0000,0.0000,0.0000,break_time
87944,-0.2199,0.0637,0.0136,0.2592,1.2007,-9.7555,1.8747,7.0963,172.6578,0.0000,0.0000,0.0000,0.0000,0.0000,break_time
88060,-0.1959,0.0476,-0.0157,0.3244,1.1511,-9.7202,1.8771,7.0617,172.6906,0.0000,0.0000,0.0000,0.0000,0.0000,break_time
88176,-0.2035,0.0484,0.0194,0.3232,1.2474,-9.7483,1.8778,7.0844,172.6685,0.0000,0.0000,0.0000,0.0000,0.0000,break_time
88292,-0.2406,0.0765,0.0469,0.3214,1.2301,-9.6849,1.8786,7.0993,172.6539,0.0000,0.0000,0.0000,0.0000,0.0000,break_time
88408,-0.2237,0.0618,-0.0025,0.2490,1.1995,-9.7112,1.8366,7.0933,172.6704,0.0000,0.0000,0.0000,0.0000,0.0000,break_time
88524,-0.1628,0.0952,0.0649,0.3741,1.1481,-9.7364,1.8715,7.0560,172.6976,0.0000,0.0000,0.0000,0.0000,0.0000,break_time
88640,-0.2165,0.0506,-0.0712,0.3334,1.2534,-9.6807,1.8799,7.0876,172.6649,0.0000,0.0000,0.0000,0.0000,0.0000,break_time
88756,-0.1825,0.0847,-0.0421,0.2921,1.2331,-9.7160,1.8627,7.1018,172.6555,0.0000,0.0000,0.0000,0.0000,0.0000,break_time
88872,-0.2184,0.0603,0.0601,0.3514,1.2181,-9.7208,1.8819,7.1054,172.6471,0.0000,0.0000,0.0000,0.0000,0.0000,break_time
88988,-0.1952,0.0394,0.0639,0.3789,1.2247,-9.7286,1.9150,7.1118,172.6323,0.0000,0.0000,0.0000,0.0000,0.0000,break_time
89104,-0.2138,0.0502,0.0045,0.2496,1.1876,-9.7537,1.8689,7.0946,172.6609,0.0000,0.0000,0.0000,0.0000,0.0000,break_time
89220,-0.2226,0.0521,0.0324,0.3214,1.1977,-9.7902,1.8687,7.0822,172.6730,0.0000,0.0000,0.0000,0.0000,0.0000,break_time
89336,-0.1932,0.0683,0.0140,0.3406,1.1834,-9.7292,1.8808,7.0670,172.6845,0.0000,0.0000,0.0000,0.0000,0.0000,break_time
89452,-0.2007,0.0623,-0.0056,0.2795,1.2271,-9.7334,1.8560,7.0786,172.6797,0.0000,0.0000,0.0000,0.0000,0.0000,break_time
89568,-0.2086,0.0628,-0.0109,0.3256,1.1942,-9.7256,1.8607,7.0703,172.6865,0.0000,0.0000,0.0000,0.0000,0.0000,break_time
89684,-0.2308,0.0469,-0.0357,0.3059,1.2097,-9.7561,1.8528,7.0698,172.6891,0.0000,0.0000,0.0000,0.0000,0.0000,break_time
89800,-0.1952,0.0563,-0.0506,0.2933,1.2157,-9.7406,1.8387,7.0739,172.6887,0.0000,0.0000,0.0000,0.0000,0.0000,break_time
89916,-0.2110,0.0581,0.0012,0.3316,1.2552,-9.7106,1.8488,7.1026,172.6583,0.0000,0.0000,0.0000,0.0000,0.0000,break_time
90032,-0.1843,0.0427,-0.0007,0.3256,1.2289,-9.7076,1.8545,7.1134,172.6465,0.0000,0.0000,0.0000,0.0000,0.0000,break_time
90148,-0.1913,0.0498,0.0290,0.2927,1.2277,-9.7501,1.8396,7.1194,172.6444,0.0000,0.0000,0.0000,0.0000,0.0000,break_time
90264,-0.2018,0.0693,0.0209,0.3143,1.2109,-9.7795,1.8383,7.1129,172.6510,0.0000,0.0000,0.0000,0.0000,0.0000,nothing
90380,-0.1628,0.1017,-0.0367,0.3011,1.2103,-9.7388,1.8302,7.1097,172.6562,0.0000,0.0000,0.0000,0.0000,0.0000,nothing
90496,-0.1937,0.0605,0.0423,0.3304,1.2217,-9.7621,1.8395,7.1117,172.6519,0.0000,0.0000,0.0000,0.0000,0.0000,nothing
90612,-0.2179,0.0802,-0.0199,0.3370,1.1840,-9.7202,1.8527,7.0946,172.6651,0.0000,0.0000,0.0000,0.0000,0.0000,nothing
90728,-0.1921,0.0525,-0.0188,0.3256,1.1942,-9.7687,1.8569,7.0817,172.6765,0.0000,0.0000,0.0000,0.0000,0.0000,nothing
90844,-0.1629,0.0664,0.0288,0.2963,1.2594,-9.7292,1.8442,7.1107,172.6516,0.0000,0.0000,0.0000,0.0000,0.0000,nothing
90960,-0.2109,0.0774,-0.0307,0.3262,1.2498,-9.7286,1.8503,7.1313,172.6302,0.0000,0.0000,0.0000,0.0000,0.0000,nothing
91076,-0.1850,0.0574,0.0049,0.2909,1.2025,-9.7328,1.8352,7.1222,172.6428,0.0000,0.0000,0.0000,0.0000,0.0000,nothing
91192,-0.1890,0.0634,0.0158,0.2658,1.2145,-9.7543,1.8065,7.1194,172.6526,0.0000,0.0000,0.0000,0.0000,0.0000,nothing
91308,-0.1941,0.0814,0.0305,0.3376,1.2486,-9.7436,1.8227,7.1373,172.6312,0.0000,0.0000,0.0000,0.0000,0.0000,nothing
91424,-0.2263,0.0468,0.0160,0.3166,1.2235,-9.7184,1.8256,7.1408,172.6272,0.0000,0.0000,0.0000,0.0000,0.0000,nothing
91540,-0.2090,0.0653,0.0363,0.3005,1.2229,-9.7292,1.8185,7.1428,172.6270,0.0000,0.0000,0.0000,0.0000,0.0000,nothing
91656,-0.1787,0.0748,0.0256,0.3148,1.1900,-9.7184,1.8209,7.1262,172.6425,0.0000,0.0000,0.0000,0.0000,0.0000,nothing
91772,-0.1714,0.0708,-0.0222,0.3214,1.1684,-9.7741,1.8258,7.0948,172.6716,0.0000,0.0000,0.0000,0.0000,0.0000,nothing
91888,-0.1919,0.0660,-0.0736,0.3023,1.2390,-9.7328,1.8197,7.1105,172.6580,0.0000,0.0000,0.0000,0.0000,0.0000,nothing
92004,-0.2192,0.1024,0.0558,0.3406,1.2073,-9.7531,1.8363,7.1047,172.6595,0.0000,0.0000,0.0000,0.0000,0.0000,nothing
92120,-0.1745,0.0488,-0.0579,0.3514,1.2355,-9.7609,1.8572,7.1152,172.6440,0.0000,0.0000,0.0000,0.0000,0.0000,nothing
92236,-0.1746,0.0832,-0.0581,0.2915,1.2073,-9.7316,1.8418,7.1105,172.6524,0.0000,0.0000,0.0000,0.0000,0.0000,nothing
92352,-0.1986,0.0780,-0.0056,0.2903,1.2337,-9.7160,1.8274,7.1228,172.6442,0.0000,0.0000,0.0000,0.0000,0.0000,nothing
92468,-0.2009,0.0532,0.0031,0.3101,1.2001,-9.7280,1.8259,7.1134,172.6536,0.0000,0.0000,0.0000,0.0000,0.0000,nothing
92584,-0.1994,0.0732,-0.0100,0.3005,1.2169,-9.7370,1.8187,7.1141,172.6548,0.0000,0.0000,0.0000,0.0000,0.0000,nothing
92700,-0.1772,0.0618,-0.0074,0.3059,1.1918,-9.7316,1.8155,7.1006,172.6687,0.0000,0.0000,0.0000,0.0000,0.0000,nothing
92816,-0.1720,0.0678,-0.0061,0.3675,1.2396,-9.7160,1.8488,7.1171,172.6443,0.0000,0.0000,0.0000,0.0000,0.0000,nothing
92932,-0.2109,0.0683,-0.0398,0.3125,1.2468,-9.7394,1.8462,7.1345,172.6281,0.0000,0.0000,0.0000,0.0000,0.0000,nothing
93048,-0.1928,0.0798,-0.0104,0.3220,1.2253,-9.7406,1.8494,7.1377,172.6242,0.0000,0.0000,0.0000,0.0000,0.0000,nothing
93164,-0.2131,0.0570,-0.0256,0.3226,1.2061,-9.7298,1.8530,7.1302,172.6306,0.0000,0.0000,0.0000,0.0000,0.0000,nothing
93280,-0.2283,0.1018,0.0080,0.3107,1.1828,-9.7513,1.8488,7.1084,172.6527,0.0000,0.0000,0.0000,0.0000,0.0000,nothing
93396,-0.2095,0.0372,-0.0213,0.3089,1.2151,-9.7328,1.8443,7.1088,172.6535,0.0000,0.0000,0.0000,0.0000,0.0000,nothing
93512,-0.1911,0.0766,0.0038,0.3310,1.1912,-9.7352,1.8532,7.0951,172.6644,0.0000,0.0000,0.0000,0.0000,0.0000,nothing
93628,-0.1914,0.0553,-0.0046,0.3250,1.2337,-9.7208,1.8578,7.1085,172.6504,0.0000,0.0000,0.0000,0.0000,0.0000,nothing
93744,-0.2244,0.0665,0.0162,0.3113,1.2229,-9.7615,1.8532,7.1113,172.6487,0.0000,0.0000,0.0000,0.0000,0.0000,nothing
93860,-0.1921,0.0675,0.0375,0.3873,1.0744,-9.7148,1.8947,7.0311,172.7156,0.0000,0.0000,0.0000,0.0000,0.0000,nothing
93976,-0.2365,0.0718,-0.0143,0.3095,1.2384,-9.7729,1.8851,7.0499,172.6999,0.0000,0.0000,0.0000,0.0000,0.0000,nothing
94092,-0.2072,0.0503,0.0011,0.2855,1.2313,-9.7160,1.8636,7.0668,172.6891,0.0000,0.0000,0.0000,0.0000,0.0000,nothing
94208,-0.2240,0.0653,-0.0327,0.3250,1.2109,-9.7388,1.8670,7.0685,172.6866,0.0000,0.0000,0.0000,0.0000,0.0000,nothing
94324,-0.1909,0.0652,-0.0660,0.3238,1.1864,-9.7890,1.8684,7.0522,172.7020,0.0000,0.0000,0.0000,0.0000,0.0000,nothing
94440,-0.1970,0.0813,0.0071,0.3113,1.2121,-9.7567,1.8629,7.0548,172.7009,0.0000,0.0000,0.0000,0.0000,0.0000,nothing
94556,-0.1849,0.0631,-0.0116,0.3418,1.2091,-9.7340,1.8761,7.0570,172.6954,0.0000,0.0000,0.0000,0.0000,0.0000,nothing
94672,-0.2184,0.0564,0.0063,0.3089,1.2247,-9.7226,1.8691,7.0689,172.6858,0.0000,0.0000,0.0000,0.0000,0.0000,nothing
94788,-0.1858,0.0558,-0.0274,0.2706,1.2426,-9.7531,1.8397,7.0878,172.6749,0.0000,0.0000,0.0000,0.0000,0.0000,nothing
94904,-0.1828,0.0618,0.0481,0.2951,1.2031,-9.7513,1.8278,7.0821,172.6835,0.0000,0.0000,0.0000,0.0000,0.0000,nothing
95020,-0.1999,0.0792,0.0472,0.3550,1.2067,-9.7615,1.8517,7.0781,172.6813,0.0000,0.0000,0.0000,0.0000,0.0000,nothing
95136,-0.1911,0.0750,-0.0228,0.3023,1.2115,-9.7310,1.8431,7.0797,172.6820,0.0000,0.0000,0.0000,0.0000,0.0000,nothing
95252,-0.2255,0.0266,-0.0733,0.3208,1.1768,-9.7196,1.8465,7.0617,172.6985,0.0000,0.0000,0.0000,0.0000,0.0000,nothing
95368,-0.1835,0.0624,0.0112,0.3113,1.2474,-9.7430,1.8433,7.0848,172.6770,0.0000,0.0000,0.0000,0.0000,0.0000,nothing
95484,-0.2147,0.0593,-0.0189,0.3005,1.2157,-9.7436,1.8343,7.0872,172.6769,0.0000,0.0000,0.0000,0.0000,0.0000,nothing
95600,-0.1888,0.0668,0.0243,0.3065,1.2169,-9.7364,1.8298,7.0905,172.6748,0.0000,0.0000,0.0000,0.0000,0.0000,nothing
95716,-0.2213,0.0545,0.0015,0.3885,1.2091,-9.7753,1.8728,7.0860,172.6682,0.0000,0.0000,0.0000,0.0000,0.0000,nothing
95832,-0.1919,0.0720,-0.0072,0.3184,1.2235,-9.7442,1.8712,7.0927,172.6621,0.0000,0.0000,0.0000,0.0000,0.0000,nothing
95948,-0.2089,0.0867,0.0571,0.3059,1.2007,-9.7250,1.8629,7.0870,172.6698,0.0000,0.0000,0.0000,0.0000,0.0000,nothing
96064,-0.2057,0.0509,-0.0174,0.3556,1.2073,-9.7058,1.8847,7.0869,172.6643,0.0000,0.0000,0.0000,0.0000,0.0000,nothing
96180,-0.1774,0.0964,0.0034,0.2999,1.1995,-9.7058,1.8719,7.0824,172.6719,0.0000,0.0000,0.0000,0.0000,0.0000,nothing
96296,-0.1973,0.0776,0.0070,0.2951,1.2025,-9.7717,1.8564,7.0754,172.6827,0.0000,0.0000,0.0000,0.0000,0.0000,nothing
96412,-0.1903,0.0532,0.0083,0.3472,1.2145,-9.7148,1.8738,7.0800,172.6738,0.0000,0.0000,0.0000,0.0000,0.0000,nothing
96528,-0.2256,0.0746,0.0270,0.3202,1.2283,-9.7280,1.8735,7.0912,172.6630,0.0000,0.0000,0.0000,0.0000,0.0000,nothing
96644,-0.2264,0.0604,0.0082,0.2712,1.2271,-9.7609,1.8439,7.0984,172.6637,0.0000,0.0000,0.0000,0.0000,0.0000,nothing
96760,-0.2054,0.0541,0.0311,0.3783,1.1678,-9.7070,1.8810,7.0741,172.6776,0.0000,0.0000,0.0000,0.0000,0.0000,nothing
96876,-0.1785,0.0383,-0.0438,0.2939,1.2175,-9.7418,1.8644,7.0788,172.6774,0.0000,0.0000,0.0000,0.0000,0.0000,nothing
96992,-0.1880,0.0800,0.0349,0.3472,1.2420,-9.7172,1.8809,7.0988,172.6538,0.0000,0.0000,0.0000,0.0000,0.0000,nothing
97108,-0.1973,0.0648,-0.0115,0.3238,1.2426,-9.7346,1.8818,7.1160,172.6369,0.0000,0.0000,0.0000,0.0000,0.0000,nothing
97224,-0.1975,0.0530,0.0164,0.3585,1.2013,-9.7693,1.9023,7.1049,172.6423,0.0000,0.0000,0.0000,0.0000,0.0000,nothing
97340,-0.1729,0.0634,-0.0255,0.2664,1.2181,-9.7400,1.8675,7.1070,172.6492,0.0000,0.0000,0.0000,0.0000,0.0000,nothing
97456,-0.1966,0.1031,-0.0125,0.3184,1.2833,-9.7693,1.8659,7.1445,172.6134,0.0000,0.0000,0.0000,0.0000,0.0000,nothing
97572,-0.2405,0.0740,0.0273,0.3484,1.2785,-9.7609,1.8820,7.1759,172.5789,0.0000,0.0000,0.0000,0.0000,0.0000,nothing
97688,-0.2316,0.0383,-0.0562,0.3526,1.2426,-9.7388,1.8994,7.1850,172.5656,0.0000,0.0000,0.0000,0.0000,0.0000,nothing
97804,-0.1975,0.0833,0.1084,0.3059,1.1942,-9.7274,1.8883,7.1660,172.5868,0.0000,0.0000,0.0000,0.0000,0.0000,nothing
97920,-0.2390,0.0664,-0.0879,0.3430,1.2115,-9.7394,1.8996,7.1581,172.5916,0.0000,0.0000,0.0000,0.0000,0.0000,nothing
98036,-0.1970,0.0458,0.0577,0.3053,1.1906,-9.7507,1.8876,7.1381,172.6141,0.0000,0.0000,0.0000,0.0000,0.0000,nothing
98152,-0.2045,0.0815,0.0567,0.2622,1.2109,-9.7358,1.8520,7.1330,172.6281,0.0000,0.0000,0.0000,0.0000,0.0000,nothing
98268,-0.2187,0.0654,-0.0368,0.3490,1.2115,-9.7621,1.8700,7.1267,172.6296,0.0000,0.0000,0.0000,0.0000,0.0000,nothing
98384,-0.2288,0.0663,0.0288,0.3107,1.1989,-9.7555,1.8640,7.1143,172.6431,0.0000,0.0000,0.0000,0.0000,0.0000,nothing
98500,-0.1857,0.0371,0.0196,0.2945,1.1947,-9.7609,1.8491,7.1004,172.6604,0.0000,0.0000,0.0000,0.0000,0.0000,nothing
98616,-0.1971,0.0150,0.0260,0.3143,1.2199,-9.7202,1.8480,7.1053,172.6559,0.0000,0.0000,0.0000,0.0000,0.0000,nothing
98732,-0.1915,0.1022,-0.0314,0.2921,1.2115,-9.7142,1.8341,7.1053,172.6594,0.0000,0.0000,0.0000,0.0000,0.0000,nothing
98848,-0.2144,0.0875,0.0821,0.3484,1.2223,-9.7603,1.8536,7.1082,172.6517,0.0000,0.0000,0.0000,0.0000,0.0000,nothing
98964,-0.2034,0.0705,-0.0288,0.2831,1.2169,-9.7232,1.8337,7.1104,172.6546,0.0000,0.0000,0.0000,0.0000,0.0000,nothing
99080,-0.2097,0.0871,0.0356,0.2957,1.2055,-9.7298,1.8231,7.1054,172.6621,0.0000,0.0000,0.0000,0.0000,0.0000,nothing
99196,-0.2102,0.0661,-0.0330,0.3184,1.2181,-9.6987,1.8274,7.1103,172.6563,0.0000,0.0000,0.0000,0.0000,0.0000,nothing
99312,-0.1861,0.0553,0.0273,0.2813,1.1995,-9.7394,1.8089,7.1011,172.6698,0.0000,0.0000,0.0000,0.0000,0.0000,nothing
99428,-0.2082,0.0611,-0.0259,0.3627,1.2223,-9.7274,1.8399,7.1067,172.6566,0.0000,0.0000,0.0000,0.0000,0.0000,nothing
99544,-0.2132,0.0721,-0.0125,0.2131,1.2355,-9.7519,1.7800,7.1179,172.6607,0.0000,0.0000,0.0000,0.0000,0.0000,nothing
99660,-0.2271,0.0772,0.0477,0.3148,1.2133,-9.7238,1.7860,7.1170,172.6601,0.0000,0.0000,0.0000,0.0000,0.0000,nothing
99776,-0.1812,0.0522,-0.0185,0.3939,1.0858,-9.7693,1.8370,7.0389,172.7230,0.0000,0.0000,0.0000,0.0000,0.0000,nothing
99892,-0.1891,0.0397,-0.0116,0.3053,1.1995,-9.7543,1.8312,7.0357,172.7276,0.0000,0.0000,0.0000,0.0000,0.0000,nothing
100008,-0.1851,0.0616,0.0181,0.1227,1.2642,-9.7154,1.7200,7.0735,172.7183,0.0000,0.0000,0.0000,0.0000,0.0000,nothing
100124,-0.1688,0.0555,-0.0248,0.5094,1.1199,-9.7471,1.8453,7.0208,172.7383,0.0000,0.0000,0.0000,0.0000,0.0000,nothing
100240,-0.1629,0.0616,-0.0072,0.2490,1.2079,-9.7130,1.8066,7.0274,172.7418,0.0000,0.0000,0.0000,0.0000,0.0000,nothing
100356,-0.1925,0.0939,0.0003,0.2526,1.2049,-9.7501,1.7732,7.0289,172.7487,0.0000,0.0000,0.0000,0.0000,0.0000,nothing
100472,-0.1830,0.0843,0.0344,0.3268,1.2372,-9.7040,1.7872,7.0522,172.7227,0.0000,0.0000,0.0000,0.0000,0.0000,nothing
100588,-0.1937,0.0836,0.0233,0.3843,1.2127,-9.7513,1.8325,7.0553,172.7082,0.0000,0.0000,0.0000,0.0000,0.0000,nothing
100704,-0.2210,0.0755,0.0449,0.3771,1.2355,-9.7346,1.8694,7.0726,172.6821,0.0000,0.0000,0.0000,0.0000,0.0000,nothing
100820,-0.2270,0.0683,-0.0323,0.2993,1.2145,-9.7453,1.8570,7.0754,172.6826,0.0000,0.0000,0.0000,0.0000,0.0000,nothing
100936,-0.2067,0.0915,0.0583,0.3089,1.1840,-9.7274,1.8518,7.0615,172.6973,0.0000,0.0000,0.0000,0.0000,0.0000,nothing
101052,-0.1932,0.0384,0.0319,0.2700,1.2175,-9.7112,1.8247,7.0696,172.6964,0.0000,0.0000,0.0000,0.0000,0.0000,nothing
101168,-0.1764,0.0528,0.0146,0.3556,1.2283,-9.7184,1.8501,7.0825,172.6774,0.0000,0.0000,0.0000,0.0000,0.0000,nothing
101284,-0.2068,0.0664,0.0198,0.3975,1.2331,-9.7418,1.8969,7.0951,172.6532,0.0000,0.0000,0.0000,0.0000,0.0000,nothing
101400,-0.1970,0.0598,-0.0003,0.2221,1.2097,-9.7477,1.8367,7.0929,172.6708,0.0000,0.0000,0.0000,0.0000,0.0000,nothing
101516,-0.2196,0.0729,0.0423,0.3238,1.1792,-9.6735,1.8433,7.0783,172.6833,0.0000,0.0000,0.0000,0.0000,0.0000,nothing
101632,-0.1913,0.0702,0.0315,0.3250,1.2384,-9.7693,1.8480,7.0926,172.6682,0.0000,0.0000,0.0000,0.0000,0.0000,nothing
101748,-0.2443,0.0668,0.0064,0.3005,1.2277,-9.7244,1.8388,7.1025,172.6609,0.0000,0.0000,0.0000,0.0000,0.0000,nothing
101864,-0.2123,0.0645,-0.0179,0.2765,1.2199,-9.7465,1.8162,7.1054,172.6638,0.0000,0.0000,0.0000,0.0000,0.0000,nothing
101980,-0.2064,0.0521,0.0078,0.3035,1.2223,-9.7717,1.8110,7.1075,172.6631,0.0000,0.0000,0.0000,0.0000,0.0000,nothing
102096,-0.1693,0.0596,-0.0330,0.3382,1.1421,-9.7537,1.8272,7.0642,172.7010,0.0000,0.0000,0.0000,0.0000,0.0000,nothing
102212,-0.1854,0.0684,0.0079,0.3220,1.2241,-9.7274,1.8326,7.0746,172.6896,0.0000,0.0000,0.0000,0.0000,0.0000,nothing
102328,-0.2105,0.0519,-0.0202,0.2981,1.2253,-9.7567,1.8230,7.0826,172.6842,0.0000,0.0000,0.0000,0.0000,0.0000,nothing
102444,-0.2132,0.0622,0.0138,0.3214,1.2390,-9.7142,1.8286,7.1008,172.6652,0.0000,0.0000,0.0000,0.0000,0.0000,nothing
102560,-0.2056,0.0718,-0.0348,0.2843,1.2390,-9.7017,1.8123,7.1182,172.6524,0.0000,0.0000,0.0000,0.0000,0.0000,nothing
102676,-0.2018,0.0833,0.0483,0.3250,1.2133,-9.7136,1.8213,7.1179,172.6504,0.0000,0.0000,0.0000,0.0000,0.0000,nothing
102792,-0.1847,0.0785,-0.0217,0.2700,1.2283,-9.7172,1.7970,7.1263,172.6484,0.0000,0.0000,0.0000,0.0000,0.0000,nothing
102908,-0.2203,0.0649,0.0590,0.2795,1.2582,-9.7412,1.7803,7.1494,172.6301,0.0000,0.0000,0.0000,0.0000,0.0000,nothing
103024,-0.1955,0.0785,-0.0725,0.3651,1.2295,-9.7406,1.8153,7.1533,172.6176,0.0000,0.0000,0.0000,0.0000,0.0000,nothing
103140,-0.2533,0.0871,0.0076,0.3190,1.1840,-9.7400,1.8200,7.1307,172.6384,0.0000,0.0000,0.0000,0.0000,0.0000,nothing
103256,-0.2214,0.0810,-0.0228,0.3017,1.1894,-9.7352,1.8142,7.1138,172.6561,0.0000,0.0000,0.0000,0.0000,0.0000,nothing
103372,-0.2035,0.0657,-0.0003,0.1748,1.1505,-9.7400,1.7349,7.0761,172.7122,0.0000,0.0000,0.0000,0.0000,0.0000,nothing
103488,-0.2263,0.0590,0.0573,0.3154,1.2420,-9.7322,1.7456,7.0954,172.6909,0.0000,0.0000,0.0000,0.0000,0.0000,nothing
103604,-0.2283,0.0742,-0.0410,0.2694,1.2247,-9.7549,1.7279,7.1012,172.6895,0.0000,0.0000,0.0000,0.0000,0.0000,nothing
103720,-0.2011,0.0652,-0.0269,0.3448,1.1642,-9.7214,1.7568,7.0736,172.7094,0.0000,0.0000,0.0000,0.0000,0.0000,nothing
103836,-0.2249,0.0723,0.0031,0.2999,1.1971,-9.7418,1.7561,7.0665,172.7164,0.0000,0.0000,0.0000,0.0000,0.0000,nothing
103952,-0.2042,0.0454,0.0289,0.3154,1.2013,-9.7555,1.7643,7.0615,172.7193,0.0000,0.0000,0.0000,0.0000,0.0000,nothing
104068,-0.2256,0.0579,-0.0165,0.3388,1.1995,-9.7406,1.7856,7.0570,172.7184,0.0000,0.0000,0.0000,0.0000,0.0000,nothing
104184,-0.2022,0.0552,0.0224,0.3226,1.2169,-9.7322,1.7954,7.0636,172.7095,0.0000,0.0000,0.0000,0.0000,0.0000,nothing
104300,-0.2180,0.0758,-0.0219,0.2676,1.2295,-9.7112,1.7725,7.0785,172.7007,0.0000,0.0000,0.0000,0.0000,0.0000,nothing
104416,-0.1949,0.0570,0.0158,0.3292,1.2025,-9.7298,1.7876,7.0748,172.7006,0.0000,0.0000,0.0000,0.0000,0.0000,nothing
104532,-0.2000,0.0867,0.0071,0.3023,1.2378,-9.7220,1.7855,7.0926,172.6839,0.0000,0.0000,0.0000,0.0000,0.0000,nothing
104648,-0.2026,0.0436,0.0240,0.3238,1.2534,-9.7400,1.7958,7.1162,172.6584,0.0000,0.0000,0.0000,0.0000,0.0000,nothing
104764,-0.2363,0.0740,-0.0067,0.3370,1.2067,-9.7771,1.8122,7.1078,172.6625,0.0000,0.0000,0.0000,0.0000,0.0000,nothing
104880,-0.2089,0.0434,-0.0702,0.2915,1.1924,-9.7238,1.8015,7.0958,172.6768,0.0000,0.0000,0.0000,0.0000,0.0000,nothing
104996,-0.1986,0.0660,0.0061,0.3184,1.2283,-9.7376,1.8072,7.1048,172.6667,0.0000,0.0000,0.0000,0.0000,0.0000,nothing
105112,-0.1949,0.0532,-0.0044,0.3358,1.2366,-9.7567,1.8220,7.1162,172.6519,0.0000,0.0000,0.0000,0.0000,0.0000,nothing
105228,-0.1997,0.0641,0.0258,0.3077,1.2193,-9.7681,1.8188,7.1158,172.6531,0.0000,0.0000,0.0000,0.0000,0.0000,nothing
105344,-0.2207,0.0780,-0.0033,0.3023,1.2223,-9.7298,1.8135,7.1199,172.6505,0.0000,0.0000,0.0000,0.0000,0.0000,nothing
105460,-0.1881,0.0567,-0.0329,0.3316,1.2361,-9.7693,1.8251,7.1286,172.6391,0.0000,0.0000,0.0000,0.0000,0.0000,nothing
105576,-0.1977,0.0643,0.0495,0.3119,1.2073,-9.7717,1.8240,7.1197,172.6480,0.0000,0.0000,0.0000,0.0000,0.0000,nothing
105692,-0.2099,0.0699,0.0042,0.3514,1.2307,-9.7436,1.8465,7.1271,172.6351,0.0000,0.0000,0.0000,0.0000,0.0000,nothing
105808,-0.2018,0.0881,0.0005,0.2849,1.2325,-9.7388,1.8281,7.1354,172.6318,0.0000,0.0000,0.0000,0.0000,0.0000,nothing
105924,-0.1936,0.0544,0.0056,0.3166,1.2013,-9.7220,1.8304,7.1259,172.6404,0.0000,0.0000,0.0000,0.0000,0.0000,nothing
106040,-0.2240,0.1040,-0.0209,0.2987,1.2283,-9.7268,1.8219,7.1327,172.6360,0.0000,0.0000,0.0000,0.0000,0.0000,nothing
106156,-0.2127,0.0800,-0.0040,0.2921,1.2319,-9.7471,1.8100,7.1394,172.6324,0.0000,0.0000,0.0000,0.0000,0.0000,nothing
106272,-0.2059,0.0530,-0.0694,0.3645,1.1918,-9.7471,1.8416,7.1221,172.6413,0.0000,0.0000,0.0000,0.0000,0.0000,nothing
106388,-0.1993,0.0579,0.0241,0.2747,1.2013,-9.7495,1.8176,7.1120,172.6570,0.0000,0.0000,0.0000,0.0000,0.0000,nothing
106504,-0.2104,0.0631,-0.0264,0.1574,1.2115,-9.7358,1.7279,7.1102,172.6808,0.0000,0.0000,0.0000,0.0000,0.0000,nothing
106620,-0.2044,0.0731,0.0369,0.3292,1.2175,-9.7501,1.7470,7.1105,172.6759,0.0000,0.0000,0.0000,0.0000,0.0000,nothing
106736,-0.2015,0.0526,0.0119,0.2963,1.1798,-9.7400,1.7453,7.0898,172.6964,0.0000,0.0000,0.0000,0.0000,0.0000,nothing
106852,-0.2045,0.0901,-0.0042,0.2957,1.2145,-9.6735,1.7445,7.0961,172.6905,0.0000,0.0000,0.0000,0.0000,0.0000,nothing
106968,-0.1918,0.0593,0.0472,0.3286,1.2097,-9.7304,1.7620,7.0947,172.6875,0.0000,0.0000,0.0000,0.0000,0.0000,nothing
107084,-0.2215,0.0592,-0.0038,0.3017,1.0774,-9.7657,1.7617,7.0144,172.7655,0.0000,0.0000,0.0000,0.0000,0.0000,nothing
107200,-0.2008,0.0793,0.0076,0.3154,1.2378,-9.7615,1.7692,7.0354,172.7434,0.0000,0.0000,0.0000,0.0000,0.0000,nothing
107316,-0.2519,0.0946,-0.0005,0.2981,1.2420,-9.7124,1.7666,7.0602,172.7199,0.0000,0.0000,0.0000,0.0000,0.0000,nothing
107432,-0.2022,0.0533,-0.0650,0.3502,1.2223,-9.7507,1.7941,7.0682,172.7054,0.0000,0.0000,0.0000,0.0000,0.0000,nothing
107548,-0.2110,0.0551,0.0104,0.3532,1.1959,-9.7507,1.8206,7.0602,172.7065,0.0000,0.0000,0.0000,0.0000,0.0000,nothing
107664,-0.1749,0.0571,-0.0616,0.3298,1.1947,-9.7681,1.8305,7.0511,172.7128,0.0000,0.0000,0.0000,0.0000,0.0000,nothing
107780,-0.1858,0.0680,0.0502,0.3550,1.2420,-9.7465,1.8544,7.0718,172.6867,0.0000,0.0000,0.0000,0.0000,0.0000,nothing
107896,-0.2519,0.0699,-0.0150,0.3005,1.2516,-9.7256,1.8445,7.0975,172.6643,0.0000,0.0000,0.0000,0.0000,0.0000,nothing
108012,-0.2383,0.0872,0.0106,0.3358,1.2097,-9.7358,1.8560,7.0957,172.6632,0.0000,0.0000,0.0000,0.0000,0.0000,nothing
108128,-0.2033,0.0853,-0.0660,0.3065,1.2331,-9.7118,1.8498,7.1093,172.6516,0.0000,0.0000,0.0000,0.0000,0.0000,nothing
108244,-0.1808,0.0562,0.0213,0.3047,1.2301,-9.7633,1.8421,7.1161,172.6469,0.0000,0.0000,0.0000,0.0000,0.0000,nothing
108360,-0.1467,0.0487,0.0207,0.3286,1.2079,-9.7196,1.8500,7.1125,172.6484,0.0000,0.0000,0.0000,0.0000,0.0000,nothing
108476,-0.1830,0.0624,0.0180,0.3089,1.2546,-9.7208,1.8455,7.1363,172.6265,0.0000,0.0000,0.0000,0.0000,0.0000,nothing
108592,-0.1994,0.0519,-0.0322,0.3490,1.2097,-9.7196,1.8650,7.1317,172.6260,0.0000,0.0000,0.0000,0.0000,0.0000,nothing
108708,-0.1982,0.0438,-0.0334,0.2933,1.2414,-9.7412,1.8496,7.1445,172.6176,0.0000,0.0000,0.0000,0.0000,0.0000,nothing
108824,-0.1919,0.0761,0.0371,0.3376,1.1918,-9.6981,1.8624,7.1302,172.6281,0.0000,0.0000,0.0000,0.0000,0.0000,nothing
108940,-0.2136,0.0755,-0.0449,0.3178,1.2217,-9.7549,1.8614,7.1307,172.6279,0.0000,0.0000,0.0000,0.0000,0.0000,nothing
109056,-0.2159,0.0485,0.0078,0.3256,1.2127,-9.7477,1.8651,7.1264,172.6311,0.0000,0.0000,0.0000,0.0000,0.0000,nothing
109172,-0.1914,0.0626,-0.0168,0.3113,1.1852,-9.7190,1.8607,7.1087,172.6494,0.0000,0.0000,0.0000,0.0000,0.0000,nothing
109288,-0.1827,0.0773,-0.0594,0.3370,1.2193,-9.7376,1.8713,7.1111,172.6443,0.0000,0.0000,0.0000,0.0000,0.0000,nothing
109404,-0.1992,0.0480,-0.0342,0.3520,1.2343,-9.7328,1.8896,7.1223,172.6288,0.0000,0.0000,0.0000,0.0000,0.0000,nothing
109520,-0.1890,0.0476,0.0292,0.3346,1.2067,-9.7603,1.8955,7.1144,172.6349,0.0000,0.0000,0.0000,0.0000,0.0000,nothing
109636,-0.2001,0.0710,-0.0273,0.3208,1.1983,-9.7268,1.8935,7.1050,172.6445,0.0000,0.0000,0.0000,0.0000,0.0000,nothing
109752,-0.2134,0.0735,0.0044,0.3131,1.2169,-9.7112,1.8874,7.1083,172.6429,0.0000,0.0000,0.0000,0.0000,0.0000,nothing
109868,-0.1785,0.0491,-0.0071,0.3286,1.2241,-9.7070,1.8910,7.1158,172.6347,0.0000,0.0000,0.0000,0.0000,0.0000,nothing
109984,-0.2094,0.0449,0.0210,0.3035,1.2211,-9.7136,1.8795,7.1204,172.6333,0.0000,0.0000,0.0000,0.0000,0.0000,nothing
110100,-0.1997,0.0758,0.0469,0.3340,1.2031,-9.7046,1.8871,7.1146,172.6368,0.0000,0.0000,0.0000,0.0000,0.0000,nothing
110216,-0.2003,0.0608,-0.0015,0.3292,1.1858,-9.7412,1.8906,7.0968,172.6532,0.0000,0.0000,0.0000,0.0000,0.0000,nothing
110332,-0.2007,0.0627,0.0333,0.2771,1.2001,-9.7286,1.8635,7.0901,172.6667,0.0000,0.0000,0.0000,0.0000,0.0000,nothing
110448,-0.1846,0.0750,-0.0173,0.3292,1.2193,-9.7232,1.8695,7.0954,172.6599,0.0000,0.0000,0.0000,0.0000,0.0000,nothing
110564,-0.1928,0.0624,-0.0048,0.3047,1.2193,-9.7340,1.8605,7.0995,172.6583,0.0000,0.0000,0.0000,0.0000,0.0000,nothing
110680,-0.2150,0.0667,-0.0134,0.3298,1.2307,-9.7388,1.8668,7.1094,172.6471,0.0000,0.0000,0.0000,0.0000,0.0000,nothing
110796,-0.2121,0.0769,-0.0136,0.2927,1.2714,-9.7633,1.8504,7.1402,172.6215,0.0000,0.0000,0.0000,0.0000,0.0000,nothing
110912,-0.2214,0.0759,-0.0181,0.3340,1.1959,-9.7160,1.8607,7.1275,172.6312,0.0000,0.0000,0.0000,0.0000,0.0000,nothing
111028,-0.1984,0.0455,0.0068,0.3388,1.2157,-9.7872,1.8715,7.1224,172.6334,0.0000,0.0000,0.0000,0.0000,0.0000,nothing
111144,-0.1850,0.0811,0.0303,0.3143,1.1965,-9.7304,1.8679,7.1108,172.6455,0.0000,0.0000,0.0000,0.0000,0.0000,nothing
111260,-0.2132,0.0526,-0.0251,0.3436,1.2289,-9.6969,1.8824,7.1215,172.6314,0.0000,0.0000,0.0000,0.0000,0.0000,nothing
111376,-0.2091,0.0736,0.0070,0.3190,1.2055,-9.7088,1.8809,7.1168,172.6364,0.0000,0.0000,0.0000,0.0000,0.0000,nothing
111492,-0.1845,0.0571,0.0106,0.2897,1.2139,-9.7663,1.8614,7.1133,172.6447,0.0000,0.0000,0.0000,0.0000,0.0000,nothing
111608,-0.1988,0.0635,0.0285,0.3232,1.2139,-9.7453,1.8638,7.1116,172.6458,0.0000,0.0000,0.0000,0.0000,0.0000,nothing
111724,-0.1994,0.0440,0.0108,0.3579,1.2103,-9.7304,1.8865,7.1090,172.6424,0.0000,0.0000,0.0000,0.0000,0.0000,nothing
111840,-0.1959,0.0536,0.0335,0.2843,1.2091,-9.7256,1.8640,7.1065,172.6506,0.0000,0.0000,0.0000,0.0000,0.0000,nothing
111956,-0.2090,0.0832,-0.0005,0.3256,1.2169,-9.7316,1.8678,7.1082,172.6480,0.0000,0.0000,0.0000,0.0000,0.0000,nothing
112072,-0.2188,0.0315,0.0158,0.2999,1.2337,-9.7597,1.8556,7.1175,172.6422,0.0000,0.0000,0.0000,0.0000,0.0000,nothing
112188,-0.1839,0.0406,-0.0624,0.2933,1.2247,-9.7627,1.8407,7.1205,172.6431,0.0000,0.0000,0.0000,0.0000,0.0000,nothing
112304,-0.2168,0.0774,0.0192,0.2933,1.2654,-9.7394,1.8277,7.1484,172.6193,0.0000,0.0000,0.0000,0.0000,0.0000,nothing
112420,-0.1937,0.0661,-0.0218,0.3657,1.1852,-9.7561,1.8581,7.1257,172.6336,0.0000,0.0000,0.0000,0.0000,0.0000,nothing
112536,-0.1865,0.0742,-0.0194,0.2903,1.2157,-9.7298,1.8419,7.1250,172.6384,0.0000,0.0000,0.0000,0.0000,0.0000,nothing
112652,-0.2147,0.0510,0.0251,0.2951,1.1870,-9.7304,1.8301,7.1077,172.6581,0.0000,0.0000,0.0000,0.0000,0.0000,nothing
112768,-0.1712,0.0699,-0.0248,0.3544,1.1636,-9.7687,1.8535,7.0757,172.6832,0.0000,0.0000,0.0000,0.0000,0.0000,nothing
112884,-0.1854,0.0603,0.0097,0.3585,1.2073,-9.7645,1.8769,7.0725,172.6802,0.0000,0.0000,0.0000,0.0000,0.0000,nothing
113000,-0.1786,0.0675,0.0176,0.3083,1.2103,-9.7711,1.8685,7.0710,172.6838,0.0000,0.0000,0.0000,0.0000,0.0000,nothing
113116,-0.1984,0.0646,0.0421,0.3166,1.2217,-9.7136,1.8669,7.0804,172.6752,0.0000,0.0000,0.0000,0.0000,0.0000,nothing
113232,-0.1977,0.0740,-0.0102,0.3645,1.2175,-9.7531,1.8926,7.0834,172.6656,0.0000,0.0000,0.0000,0.0000,0.0000,nothing
113348,-0.1780,0.0598,0.0301,0.3550,1.2361,-9.7430,1.9104,7.0976,172.6472,0.0000,0.0000,0.0000,0.0000,0.0000,nothing
113464,-0.1864,0.0369,0.0135,0.3214,1.2091,-9.7394,1.9069,7.0952,172.6505,0.0000,0.0000,0.0000,0.0000,0.0000,nothing
113580,-0.2029,0.0498,0.0326,0.3035,1.0822,-9.7543,1.8934,7.0185,172.7281,0.0000,0.0000,0.0000,0.0000,0.0000,nothing
113696,-0.1919,0.0558,0.0097,0.3376,1.2103,-9.7286,1.9012,7.0254,172.7194,0.0000,0.0000,0.0000,0.0000,0.0000,nothing
113812,-0.1887,0.0773,0.0075,0.3286,1.2097,-9.7729,1.9023,7.0281,172.7165,0.0000,0.0000,0.0000,0.0000,0.0000,nothing
113928,-0.1692,0.0796,0.0631,0.3119,1.0768,-9.7334,1.8945,6.9564,172.7878,0.0000,0.0000,0.0000,0.0000,0.0000,nothing
114044,-0.2117,0.0758,-0.0660,0.2777,1.2283,-9.7364,1.8671,6.9795,172.7727,0.0000,0.0000,0.0000,0.0000,0.0000,nothing
114160,-0.1974,0.0708,0.0001,0.3041,1.2307,-9.7100,1.8584,7.0035,172.7518,0.0000,0.0000,0.0000,0.0000,0.0000,nothing
114276,-0.2139,0.0683,0.0005,0.3376,1.2139,-9.7489,1.8694,7.0125,172.7402,0.0000,0.0000,0.0000,0.0000,0.0000,nothing
114392,-0.2159,0.0654,0.0041,0.2861,1.2241,-9.7094,1.8500,7.0294,172.7289,0.0000,0.0000,0.0000,0.0000,0.0000,nothing
114508,-0.2024,0.0709,-0.0074,0.3412,1.2157,-9.7142,1.8645,7.0394,172.7155,0.0000,0.0000,0.0000,0.0000,0.0000,nothing
114624,-0.2135,0.0563,-0.0187,0.3119,1.2313,-9.7082,1.8606,7.0578,172.6986,0.0000,0.0000,0.0000,0.0000,0.0000,nothing
114740,-0.1894,0.0684,-0.0320,0.3196,1.2355,-9.7196,1.8614,7.0760,172.6808,0.0000,0.0000,0.0000,0.0000,0.0000,nothing
114856,-0.1986,0.0444,0.0510,0.3196,1.2187,-9.7088,1.8624,7.0835,172.6734,0.0000,0.0000,0.0000,0.0000,0.0000,nothing
114972,-0.1779,0.0489,-0.0353,0.3268,1.2091,-9.7274,1.8671,7.0833,172.6723,0.0000,0.0000,0.0000,0.0000,0.0000,nothing
115088,-0.2106,0.0529,0.0191,0.2670,1.2169,-9.7603,1.8358,7.0854,172.6783,0.0000,0.0000,0.0000,0.0000,0.0000,nothing
115204,-0.2214,0.0361,0.0014,0.3777,1.1977,-9.7328,1.8728,7.0779,172.6761,0.0000,0.0000,0.0000,0.0000,0.0000,nothing
115320,-0.1951,0.0281,0.0034,0.2604,1.2265,-9.7561,1.8371,7.0864,172.6770,0.0000,0.0000,0.0000,0.0000,0.0000,nothing
115436,-0.1869,0.0709,0.0008,0.3526,1.2468,-9.6951,1.8599,7.1101,172.6483,0.0000,0.0000,0.0000,0.0000,0.0000,nothing
115552,-0.1778,0.0648,0.0181,0.3268,1.2133,-9.7537,1.8643,7.1077,172.6494,0.0000,0.0000,0.0000,0.0000,0.0000,nothing
115668,-0.1988,0.0811,0.0329,0.2921,1.2085,-9.7495,1.8482,7.1033,172.6578,0.0000,0.0000,0.0000,0.0000,0.0000,nothing
115784,-0.2225,0.0523,-0.0080,0.2945,1.2337,-9.7663,1.8347,7.1126,172.6522,0.0000,0.0000,0.0000,0.0000,0.0000,nothing
115900,-0.1483,0.0534,0.0334,0.3107,1.1906,-9.7274,1.8328,7.0988,172.6661,0.0000,0.0000,0.0000,0.0000,0.0000,nothing
116016,-0.2056,0.0721,-0.0236,0.2783,1.2277,-9.7651,1.8115,7.1052,172.6652,0.0000,0.0000,0.0000,0.0000,0.0000,nothing
116132,-0.1909,0.0759,0.0018,0.3412,1.2157,-9.7693,1.8288,7.1036,172.6624,0.0000,0.0000,0.0000,0.0000,0.0000,nothing
116248,-0.1830,0.0634,-0.0014,0.3101,1.2366,-9.7274,1.8271,7.1174,172.6495,0.0000,0.0000,0.0000,0.0000,0.0000,nothing
116364,-0.2125,0.0446,0.0687,0.2891,1.2390,-9.7495,1.8129,7.1296,172.6412,0.0000,0.0000,0.0000,0.0000,0.0000,nothing
116480,-0.2189,0.0311,-0.0296,0.3573,1.2139,-9.7561,1.8398,7.1254,172.6385,0.0000,0.0000,0.0000,0.0000,0.0000,nothing
116596,-0.1992,0.0338,0.0319,0.3274,1.2175,-9.7555,1.8465,7.1239,172.6383,0.0000,0.0000,0.0000,0.0000,0.0000,nothing
116712,-0.1767,0.0434,0.0612,0.3184,1.1888,-9.7256,1.8480,7.1080,172.6533,0.0000,0.0000,0.0000,0.0000,0.0000,nothing
116828,-0.1842,0.0725,0.0210,0.3172,1.2211,-9.7801,1.8476,7.1085,172.6529,0.0000,0.0000,0.0000,0.0000,0.0000,nothing
116944,-0.2114,0.0563,0.0217,0.3166,1.2199,-9.7310,1.8478,7.1118,172.6496,0.0000,0.0000,0.0000,0.0000,0.0000,nothing
117060,-0.1700,0.0721,0.0579,0.3274,1.0738,-9.7388,1.8544,7.0297,172.7274,0.0000,0.0000,0.0000,0.0000,0.0000,nothing
117176,-0.2117,0.0582,-0.0044,0.3550,1.2253,-9.7340,1.8761,7.0437,172.7083,0.0000,0.0000,0.0000,0.0000,0.0000,nothing
117292,-0.1967,0.0829,0.0101,0.3137,1.2432,-9.7669,1.8710,7.0644,172.6896,0.0000,0.0000,0.0000,0.0000,0.0000,nothing
117408,-0.2109,0.0589,-0.0324,0.2897,1.2468,-9.7471,1.8527,7.0866,172.6728,0.0000,0.0000,0.0000,0.0000,0.0000,nothing
117524,-0.2192,0.0740,0.0814,0.3346,1.2390,-9.7298,1.8628,7.1033,172.6541,0.0000,0.0000,0.0000,0.0000,0.0000,nothing
117640,-0.2371,0.0815,-0.0204,0.3053,1.1840,-9.7322,1.8549,7.0863,172.6726,0.0000,0.0000,0.0000,0.0000,0.0000,nothing
117756,-0.1994,0.0654,-0.0252,0.3160,1.1959,-9.7190,1.8543,7.0788,172.6800,0.0000,0.0000,0.0000,0.0000,0.0000,nothing
117872,-0.1934,0.0578,-0.0145,0.3310,1.2013,-9.7645,1.8616,7.0719,172.6848,0.0000,0.0000,0.0000,0.0000,0.0000,nothing
117988,-0.2034,0.0695,0.0574,0.3322,1.2193,-9.7346,1.8694,7.0782,172.6767,0.0000,0.0000,0.0000,0.0000,0.0000,nothing
118104,-0.1933,0.0462,0.0145,0.2885,1.1965,-9.7519,1.8506,7.0696,172.6898,0.0000,0.0000,0.0000,0.0000,0.0000,nothing
118220,-0.2038,0.0742,0.0119,0.3424,1.2552,-9.7741,1.8646,7.0941,172.6625,0.0000,0.0000,0.0000,0.0000,0.0000,nothing
118336,-0.1817,0.0701,0.0180,0.3298,1.2175,-9.7436,1.8705,7.0965,172.6587,0.0000,0.0000,0.0000,0.0000,0.0000,nothing
118452,-0.1804,0.0791,0.0434,0.3166,1.2127,-9.7603,1.8678,7.0948,172.6610,0.0000,0.0000,0.0000,0.0000,0.0000,nothing
118568,-0.1891,0.0814,0.0189,0.2897,1.2582,-9.7172,1.8505,7.1227,172.6385,0.0000,0.0000,0.0000,0.0000,0.0000,nothing
118684,-0.2281,0.0368,0.0135,0.3597,1.2199,-9.7549,1.8750,7.1227,172.6321,0.0000,0.0000,0.0000,0.0000,0.0000,nothing
118800,-0.1858,0.0774,-0.0271,0.3017,1.2516,-9.7304,1.8637,7.1431,172.6154,0.0000,0.0000,0.0000,0.0000,0.0000,nothing
118916,-0.2134,0.0623,0.0568,0.2915,1.2408,-9.7549,1.8471,7.1534,172.6096,0.0000,0.0000,0.0000,0.0000,0.0000,nothing
119032,-0.2037,0.0686,-0.0185,0.3214,1.2175,-9.7292,1.8501,7.1509,172.6112,0.0000,0.0000,0.0000,0.0000,0.0000,nothing
119148,-0.2230,0.0286,0.0091,0.2981,1.2109,-9.7747,1.8384,7.1417,172.6231,0.0000,0.0000,0.0000,0.0000,0.0000,nothing
119264,-0.1929,0.0553,-0.0521,0.3448,1.2259,-9.7034,1.8564,7.1471,172.6133,0.0000,0.0000,0.0000,0.0000,0.0000,nothing
119380,-0.2023,0.0766,0.0451,0.3137,1.2235,-9.7394,1.8538,7.1480,172.6131,0.0000,0.0000,0.0000,0.0000,0.0000,nothing
119496,-0.2095,0.0628,-0.0105,0.3597,1.2337,-9.7400,1.8783,7.1546,172.6005,0.0000,0.0000,0.0000,0.0000,0.0000,nothing
119612,-0.2159,0.0814,0.0040,0.2777,1.2145,-9.7382,1.8526,7.1497,172.6117,0.0000,0.0000,0.0000,0.0000,0.0000,nothing
119728,-0.2211,0.0687,0.0338,0.3615,1.1942,-9.7603,1.8779,7.1318,172.6226,0.0000,0.0000,0.0000,0.0000,0.0000,nothing
119844,-0.2275,0.0815,-0.0011,0.3071,1.2229,-9.7675,1.8688,7.1319,172.6248,0.0000,0.0000,0.0000,0.0000,0.0000,nothing
119960,-0.1805,0.0645,0.0303,0.3154,1.2007,-9.7699,1.8654,7.1190,172.6382,0.0000,0.0000,0.0000,0.0000,0.0000,nothing
120076,-0.2027,0.0840,0.0260,0.3190,1.2097,-9.7124,1.8656,7.1167,172.6404,0.0000,0.0000,0.0000,0.0000,0.0000,nothing
120192,-0.1951,0.0514,-0.0048,0.3125,1.1971,-9.7615,1.8610,7.1038,172.6540,0.0000,0.0000,0.0000,0.0000,0.0000,nothing
120308,-0.1999,0.0718,-0.0363,0.2945,1.2127,-9.7400,1.8468,7.1029,172.6586,0.0000,0.0000,0.0000,0.0000,0.0000,nothing
120424,-0.2034,0.0937,-0.0258,0.3131,1.3707,-9.7172,1.8448,7.1950,172.5698,0.0000,0.0000,0.0000,0.0000,0.0000,nothing
120540,-0.1900,0.0667,-0.0093,0.3250,1.0768,-9.7112,1.8509,7.1083,172.6523,0.0000,0.0000,0.0000,0.0000,0.0000,nothing
120656,-0.1881,0.0904,-0.0593,0.3101,1.2187,-9.7627,1.8463,7.1087,172.6531,0.0000,0.0000,0.0000,0.0000,0.0000,nothing
120772,-0.2049,0.0956,-0.0022,0.3262,1.1900,-9.7046,1.8527,7.0965,172.6632,0.0000,0.0000,0.0000,0.0000,0.0000,nothing
120888,-0.1999,0.0758,0.0000,0.3071,1.2205,-9.7358,1.8467,7.1011,172.6604,0.0000,0.0000,0.0000,0.0000,0.0000,nothing
121004,-0.1737,0.0543,-0.0169,0.3579,1.2037,-9.7483,1.8708,7.0944,172.6606,0.0000,0.0000,0.0000,0.0000,0.0000,nothing
121120,-0.2120,0.0480,-0.0252,0.3376,1.2121,-9.7376,1.8807,7.0941,172.6584,0.0000,0.0000,0.0000,0.0000,0.0000,nothing
121236,-0.1872,0.0507,-0.0251,0.3262,1.2067,-9.7418,1.8830,7.0904,172.6613,0.0000,0.0000,0.0000,0.0000,0.0000,nothing
121352,-0.1906,0.0593,0.0183,0.3131,1.2103,-9.7400,1.8774,7.0894,172.6638,0.0000,0.0000,0.0000,0.0000,0.0000,nothing
121468,-0.1970,0.0500,-0.0154,0.3400,1.2223,-9.7495,1.8878,7.0946,172.6560,0.0000,0.0000,0.0000,0.0000,0.0000,nothing
121584,-0.1974,0.0728,-0.0011,0.3370,1.2277,-9.7220,1.8960,7.1044,172.6444,0.0000,0.0000,0.0000,0.0000,0.0000,nothing
121700,-0.2076,0.0631,0.0174,0.3520,1.2157,-9.7418,1.9117,7.1048,172.6399,0.0000,0.0000,0.0000,0.0000,0.0000,nothing
121816,-0.2263,0.0560,-0.0206,0.3244,1.1977,-9.7705,1.9093,7.0928,172.6521,0.0000,0.0000,0.0000,0.0000,0.0000,nothing
121932,-0.1989,0.0404,-0.0290,0.2658,1.2247,-9.7615,1.8731,7.0984,172.6562,0.0000,0.0000,0.0000,0.0000,0.0000,nothing
122048,-0.2046,0.0498,-0.0093,0.3466,1.2001,-9.7495,1.8878,7.0899,172.6606,0.0000,0.0000,0.0000,0.0000,0.0000,nothing
122164,-0.2195,0.0529,0.0526,0.3035,1.2193,-9.7340,1.8762,7.0945,172.6591,0.0000,0.0000,0.0000,0.0000,0.0000,nothing
122280,-0.1941,0.0777,-0.0213,0.3454,1.2253,-9.7406,1.8901,7.1016,172.6487,0.0000,0.0000,0.0000,0.0000,0.0000,nothing
122396,-0.1939,0.0684,0.0434,0.2993,1.2079,-9.7190,1.8762,7.0996,172.6543,0.0000,0.0000,0.0000,0.0000,0.0000,nothing
122512,-0.1917,0.0679,0.0087,0.3514,1.2115,-9.7699,1.8930,7.0960,172.6533,0.0000,0.0000,0.0000,0.0000,0.0000,nothing
122628,-0.1840,0.0789,-0.0037,0.3334,1.1977,-9.7088,1.8989,7.0893,172.6582,0.0000,0.0000,0.0000,0.0000,0.0000,nothing
122744,-0.1860,0.0506,-0.0165,0.3071,1.2127,-9.7256,1.8885,7.0908,172.6595,0.0000,0.0000,0.0000,0.0000,0.0000,nothing
122860,-0.1802,0.0725,-0.0320,0.3298,1.2420,-9.7226,1.8923,7.1093,172.6407,0.0000,0.0000,0.0000,0.0000,0.0000,nothing
122976,-0.2068,0.0492,0.0330,0.3442,1.2151,-9.7459,1.9038,7.1086,172.6383,0.0000,0.0000,0.0000,0.0000,0.0000,nothing
123092,-0.1994,0.0766,-0.0740,0.4519,1.2007,-9.7160,1.9776,7.1016,172.6255,0.0000,0.0000,0.0000,0.0000,0.0000,nothing
123208,-0.1910,0.0604,0.0648,0.3083,1.1947,-9.7801,1.9590,7.0875,172.6441,0.0000,0.0000,0.0000,0.0000,0.0000,nothing
123324,-0.2094,0.0982,-0.0120,0.4489,1.2121,-9.7250,2.0253,7.0885,172.6250,0.0000,0.0000,0.0000,0.0000,0.0000,nothing
123440,-0.1865,0.0935,0.0217,0.2724,1.2295,-9.7525,1.9814,7.0979,172.6280,0.0000,0.0000,0.0000,0.0000,0.0000,nothing
123556,-0.1835,0.0657,0.0319,0.3400,1.2127,-9.7519,1.9814,7.0966,172.6293,0.0000,0.0000,0.0000,0.0000,0.0000,nothing
123672,-0.1872,0.0489,-0.0060,0.2879,1.1983,-9.7124,1.9519,7.0900,172.6436,0.0000,0.0000,0.0000,0.0000,0.0000,nothing
123788,-0.1994,0.0808,0.0091,0.3244,1.2372,-9.7579,1.9456,7.1033,172.6325,0.0000,0.0000,0.0000,0.0000,0.0000,nothing
123904,-0.1975,0.0399,-0.0266,0.3172,1.2091,-9.7394,1.9362,7.1003,172.6378,0.0000,0.0000,0.0000,0.0000,0.0000,nothing
124020,-0.2034,0.0806,0.0386,0.2921,1.2211,-9.7412,1.9130,7.1044,172.6400,0.0000,0.0000,0.0000,0.0000,0.0000,nothing
124136,-0.1786,0.1066,-0.0147,0.3556,1.2079,-9.6993,1.9300,7.1034,172.6365,0.0000,0.0000,0.0000,0.0000,0.0000,nothing
124252,-0.1753,0.0577,-0.0180,0.2771,1.2516,-9.7447,1.8985,7.1247,172.6241,0.0000,0.0000,0.0000,0.0000,0.0000,nothing
124368,-0.2052,0.0750,-0.0349,0.3148,1.2049,-9.7358,1.8925,7.1174,172.6328,0.0000,0.0000,0.0000,0.0000,0.0000,nothing
124484,-0.2138,0.0551,-0.0241,0.2634,1.2480,-9.7388,1.8569,7.1357,172.6243,0.0000,0.0000,0.0000,0.0000,0.0000,nothing
124600,-0.1772,0.0803,-0.0110,0.3388,1.2199,-9.7076,1.8695,7.1379,172.6189,0.0000,0.0000,0.0000,0.0000,0.0000,nothing
124716,-0.1782,0.0473,0.0552,0.3148,1.2552,-9.7459,1.8660,7.1576,172.6006,0.0000,0.0000,0.0000,0.0000,0.0000,nothing
124832,-0.1825,0.0642,-0.0105,0.3184,1.2067,-9.7310,1.8654,7.1484,172.6097,0.0000,0.0000,0.0000,0.0000,0.0000,nothing
124948,-0.1846,0.0694,0.0204,0.3101,1.1852,-9.7382,1.8599,7.1271,172.6317,0.0000,0.0000,0.0000,0.0000,0.0000,nothing
125064,-0.1999,0.0472,-0.0324,0.3220,1.2271,-9.7124,1.8623,7.1341,172.6244,0.0000,0.0000,0.0000,0.0000,0.0000,nothing
125180,-0.2139,0.0872,-0.0309,0.3232,1.1971,-9.7436,1.8647,7.1207,172.6367,0.0000,0.0000,0.0000,0.0000,0.0000,nothing
125296,-0.2214,0.0440,0.0296,0.2945,1.1971,-9.7681,1.8496,7.1070,172.6538,0.0000,0.0000,0.0000,0.0000,0.0000,nothing
125412,-0.1949,0.0686,0.0089,0.3370,1.2037,-9.7334,1.8614,7.1009,172.6567,0.0000,0.0000,0.0000,0.0000,0.0000,nothing
125528,-0.2131,0.0680,-0.0513,0.2933,1.2139,-9.7693,1.8459,7.0988,172.6627,0.0000,0.0000,0.0000,0.0000,0.0000,nothing
125644,-0.1967,0.0476,0.0100,0.3250,1.2325,-9.7453,1.8508,7.1093,172.6513,0.0000,0.0000,0.0000,0.0000,0.0000,nothing
125760,-0.1662,0.0643,-0.1396,0.2813,1.2007,-9.7358,1.8300,7.1012,172.6644,0.0000,0.0000,0.0000,0.0000,0.0000,nothing
125876,-0.2069,0.0814,0.0353,0.3208,1.1995,-9.7567,1.8340,7.0916,172.6727,0.0000,0.0000,0.0000,0.0000,0.0000,nothing
125992,-0.1857,0.0664,0.0029,0.2897,1.2097,-9.7513,1.8194,7.0893,172.6786,0.0000,0.0000,0.0000,0.0000,0.0000,nothing
126108,-0.1945,0.0868,0.0240,0.3166,1.2295,-9.7424,1.8222,7.0993,172.6683,0.0000,0.0000,0.0000,0.0000,0.0000,nothing
126224,-0.1989,0.0668,0.0015,0.3442,1.2091,-9.7412,1.8408,7.0965,172.6663,0.0000,0.0000,0.0000,0.0000,0.0000,nothing
126340,-0.2060,0.0840,0.0100,0.3172,1.2139,-9.7603,1.8414,7.0954,172.6672,0.0000,0.0000,0.0000,0.0000,0.0000,nothing
126456,-0.2320,0.0597,-0.0109,0.2921,1.2025,-9.7537,1.8275,7.0884,172.6775,0.0000,0.0000,0.0000,0.0000,0.0000,nothing
126572,-0.2016,0.0477,0.0247,0.3005,1.2366,-9.7352,1.8202,7.1031,172.6650,0.0000,0.0000,0.0000,0.0000,0.0000,nothing
126688,-0.1960,0.0603,-0.0214,0.3969,1.2067,-9.7376,1.8697,7.0987,172.6567,0.0000,0.0000,0.0000,0.0000,0.0000,nothing
126804,-0.2048,0.0800,-0.0113,0.3083,1.2235,-9.7346,1.8627,7.1048,172.6526,0.0000,0.0000,0.0000,0.0000,0.0000,nothing
126920,-0.2026,0.0648,0.0264,0.2538,1.3629,-9.7310,1.8244,7.1915,172.5784,0.0000,0.0000,0.0000,0.0000,0.0000,nothing
127036,-0.2248,0.0793,0.0042,0.3801,1.0972,-9.7226,1.8643,7.1159,172.6415,0.0000,0.0000,0.0000,0.0000,0.0000,nothing
127152,-0.1997,0.0682,-0.0160,0.3178,1.2378,-9.7621,1.8629,7.1266,172.6315,0.0000,0.0000,0.0000,0.0000,0.0000,nothing
127268,-0.2009,0.0656,0.0281,0.3328,1.2037,-9.7477,1.8707,7.1175,172.6383,0.0000,0.0000,0.0000,0.0000,0.0000,nothing
127384,-0.2241,0.0725,-0.0432,0.3412,1.2277,-9.7196,1.8831,7.1252,172.6277,0.0000,0.0000,0.0000,0.0000,0.0000,nothing
127500,-0.2009,0.0575,0.0322,0.3346,1.2055,-9.7549,1.8897,7.1168,172.6341,0.0000,0.0000,0.0000,0.0000,0.0000,nothing
127616,-0.2129,0.0624,-0.0706,0.3077,1.2540,-9.7436,1.8801,7.1381,172.6159,0.0000,0.0000,0.0000,0.0000,0.0000,nothing
127732,-0.1862,0.0841,-0.0072,0.3101,1.2091,-9.7382,1.8731,7.1317,172.6239,0.0000,0.0000,0.0000,0.0000,0.0000,nothing
127848,-0.2116,0.0607,0.0592,0.3376,1.2259,-9.7178,1.8832,7.1371,172.6161,0.0000,0.0000,0.0000,0.0000,0.0000,nothing
127964,-0.2195,0.0511,-0.0078,0.3208,1.2127,-9.7334,1.8822,7.1332,172.6201,0.0000,0.0000,0.0000,0.0000,0.0000,nothing
128080,-0.1823,0.0543,-0.0255,0.3490,1.2193,-9.7932,1.8966,7.1291,172.6204,0.0000,0.0000,0.0000,0.0000,0.0000,nothing
128196,-0.2244,0.0702,0.0030,0.3292,1.2175,-9.7094,1.8996,7.1305,172.6183,0.0000,0.0000,0.0000,0.0000,0.0000,nothing
128312,-0.1906,0.0499,0.0375,0.2628,1.1612,-9.7148,1.8636,7.0990,172.6581,0.0000,0.0000,0.0000,0.0000,0.0000,nothing
128428,-0.1835,0.0326,0.0138,0.2825,1.2205,-9.7292,1.8423,7.1038,172.6588,0.0000,0.0000,0.0000,0.0000,0.0000,nothing
128544,-0.2018,0.0545,0.0189,0.3143,1.2289,-9.7100,1.8420,7.1143,172.6487,0.0000,0.0000,0.0000,0.0000,0.0000,nothing
128660,-0.1869,0.0601,-0.0187,0.3508,1.2402,-9.6951,1.8632,7.1313,172.6268,0.0000,0.0000,0.0000,0.0000,0.0000,nothing
128776,-0.1994,0.0937,-0.0067,0.2765,1.2343,-9.7382,1.8383,7.1403,172.6245,0.0000,0.0000,0.0000,0.0000,0.0000,nothing
128892,-0.2172,0.0635,-0.0079,0.3256,1.2205,-9.7567,1.8441,7.1389,172.6244,0.0000,0.0000,0.0000,0.0000,0.0000,nothing
129008,-0.2113,0.0780,0.0278,0.3083,1.2432,-9.7310,1.8397,7.1527,172.6121,0.0000,0.0000,0.0000,0.0000,0.0000,nothing
129124,-0.2356,0.0746,-0.0607,0.3418,1.2229,-9.7813,1.8544,7.1496,172.6114,0.0000,0.0000,0.0000,0.0000,0.0000,nothing
129240,-0.2191,0.0815,0.0563,0.3358,1.2325,-9.7430,1.8648,7.1552,172.6034,0.0000,0.0000,0.0000,0.0000,0.0000,nothing
129356,-0.2308,0.0658,0.0003,0.3250,1.1792,-9.7615,1.8676,7.1280,172.6289,0.0000,0.0000,0.0000,0.0000,0.0000,nothing
129472,-0.2076,0.0844,0.0213,0.3041,1.2169,-9.7597,1.8579,7.1256,172.6337,0.0000,0.0000,0.0000,0.0000,0.0000,nothing
129588,-0.1941,0.0563,0.0695,0.2777,1.2259,-9.7537,1.8340,7.1291,172.6364,0.0000,0.0000,0.0000,0.0000,0.0000,nothing
129704,-0.2225,0.0635,-0.0055,0.3340,1.2061,-9.7214,1.8458,7.1231,172.6393,0.0000,0.0000,0.0000,0.0000,0.0000,nothing
129820,-0.2297,0.0470,0.0404,0.2963,1.2253,-9.7483,1.8340,7.1268,172.6386,0.0000,0.0000,0.0000,0.0000,0.0000,nothing
129936,-0.2172,0.0682,0.0042,0.3430,1.2001,-9.7394,1.8507,7.1162,172.6446,0.0000,0.0000,0.0000,0.0000,0.0000,nothing
130052,-0.2105,0.0909,-0.1148,0.3202,1.2121,-9.7651,1.8521,7.1118,172.6486,0.0000,0.0000,0.0000,0.0000,0.0000,nothing
130168,-0.1770,0.0735,0.0457,0.3274,1.1989,-9.7555,1.8577,7.1008,172.6578,0.0000,0.0000,0.0000,0.0000,0.0000,nothing
130284,-0.1805,0.0598,-0.0432,0.3262,1.2109,-9.7585,1.8619,7.0977,172.6597,0.0000,0.0000,0.0000,0.0000,0.0000,nothing
130400,-0.1933,0.0577,0.0023,0.3436,1.2301,-9.7531,1.8759,7.1063,172.6478,0.0000,0.0000,0.0000,0.0000,0.0000,nothing
130516,-0.1617,0.0792,0.0102,0.2496,1.2271,-9.7034,1.8347,7.1162,172.6488,0.0000,0.0000,0.0000,0.0000,0.0000,nothing
130632,-0.2064,0.0500,-0.0153,0.3017,1.2372,-9.7304,1.8274,7.1288,172.6383,0.0000,0.0000,0.0000,0.0000,0.0000,nothing
130748,-0.2161,0.0699,-0.0288,0.3466,1.2043,-9.7118,1.8474,7.1224,172.6395,0.0000,0.0000,0.0000,0.0000,0.0000,nothing
130864,-0.1956,0.0718,-0.0329,0.3154,1.1983,-9.7094,1.8473,7.1134,172.6482,0.0000,0.0000,0.0000,0.0000,0.0000,nothing
130980,-0.1849,0.0731,0.0319,0.2735,1.2175,-9.7418,1.8222,7.1142,172.6538,0.0000,0.0000,0.0000,0.0000,0.0000,nothing
131096,-0.1840,0.0541,-0.0447,0.3172,1.2594,-9.7507,1.8248,7.1384,172.6297,0.0000,0.0000,0.0000,0.0000,0.0000,nothing
131212,-0.1907,0.0492,0.0335,0.3352,1.2582,-9.7382,1.8378,7.1603,172.6052,0.0000,0.0000,0.0000,0.0000,0.0000,nothing
131328,-0.1918,0.0515,-0.0296,0.3089,1.2486,-9.7591,1.8339,7.1731,172.5938,0.0000,0.0000,0.0000,0.0000,0.0000,nothing
131444,-0.2101,0.0645,-0.0183,0.3585,1.2043,-9.7220,1.8600,7.1615,172.5985,0.0000,0.0000,0.0000,0.0000,0.0000,nothing
131560,-0.2124,0.0601,0.0025,0.3298,1.2235,-9.7729,1.8658,7.1585,172.5999,0.0000,0.0000,0.0000,0.0000,0.0000,nothing
131676,-0.1805,0.0750,0.0214,0.3101,1.2432,-9.7244,1.8604,7.1708,172.5893,0.0000,0.0000,0.0000,0.0000,0.0000,nothing
131792,-0.2177,0.0577,-0.0267,0.3496,1.2259,-9.7082,1.8789,7.1729,172.5826,0.0000,0.0000,0.0000,0.0000,0.0000,nothing
131908,-0.2198,0.0693,0.0420,0.3137,1.2325,-9.7442,1.8739,7.1761,172.5807,0.0000,0.0000,0.0000,0.0000,0.0000,nothing
132024,-0.2248,0.0592,-0.0097,0.3304,1.2061,-9.7208,1.8797,7.1654,172.5896,0.0000,0.0000,0.0000,0.0000,0.0000,nothing
132140,-0.1846,0.0919,0.0003,0.3041,1.2468,-9.7352,1.8692,7.1784,172.5798,0.0000,0.0000,0.0000,0.0000,0.0000,nothing
132256,-0.1949,0.0721,0.0003,0.3292,1.2133,-9.7406,1.8744,7.1702,172.5864,0.0000,0.0000,0.0000,0.0000,0.0000,nothing
132372,-0.2143,0.0510,0.0398,0.2646,1.2241,-9.7525,1.8411,7.1683,172.5966,0.0000,0.0000,0.0000,0.0000,0.0000,nothing
132488,-0.2080,0.0804,0.0263,0.3562,1.1971,-9.7256,1.8651,7.1528,172.6056,0.0000,0.0000,0.0000,0.0000,0.0000,nothing
132604,-0.1894,0.0590,-0.0806,0.3113,1.2522,-9.7765,1.8594,7.1671,172.5932,0.0000,0.0000,0.0000,0.0000,0.0000,nothing
132720,-0.2218,0.0676,0.0162,0.2867,1.1959,-9.7346,1.8410,7.1505,172.6139,0.0000,0.0000,0.0000,0.0000,0.0000,nothing
132836,-0.2368,0.0563,-0.0203,0.3550,1.2624,-9.7447,1.8638,7.1731,172.5862,0.0000,0.0000,0.0000,0.0000,0.0000,nothing
132952,-0.2322,0.0691,-0.0428,0.3268,1.1989,-9.7364,1.8682,7.1574,172.6003,0.0000,0.0000,0.0000,0.0000,0.0000,nothing
133068,-0.2008,0.0488,0.0018,0.3137,1.2187,-9.7412,1.8644,7.1544,172.6042,0.0000,0.0000,0.0000,0.0000,0.0000,nothing
133184,-0.2136,0.1016,0.0286,0.4376,1.2301,-9.7400,1.9332,7.1581,172.5828,0.0000,0.0000,0.0000,0.0000,0.0000,nothing
133300,-0.1960,0.0735,-0.0094,0.3125,1.2085,-9.7489,1.9220,7.1486,172.5949,0.0000,0.0000,0.0000,0.0000,0.0000,nothing
133416,-0.2099,0.0665,0.0301,0.3448,1.2337,-9.7436,1.9309,7.1549,172.5865,0.0000,0.0000,0.0000,0.0000,0.0000,nothing
133532,-0.2094,0.0449,-0.0502,0.2939,1.0882,-9.7166,1.9101,7.0784,172.6659,0.0000,0.0000,0.0000,0.0000,0.0000,nothing
133648,-0.2039,0.0712,0.0383,0.3137,1.2636,-9.7489,1.9018,7.1087,172.6387,0.0000,0.0000,0.0000,0.0000,0.0000,nothing
133764,-0.1933,0.0474,-0.0052,0.3328,1.3707,-9.7471,1.9053,7.1981,172.5514,0.0000,0.0000,0.0000,0.0000,0.0000,nothing
133880,-0.1855,0.0721,0.0195,0.3101,1.2456,-9.7627,1.8952,7.2051,172.5473,0.0000,0.0000,0.0000,0.0000,0.0000,nothing
133996,-0.2014,0.0402,-0.0179,0.3095,1.2366,-9.6963,1.8870,7.2110,172.5436,0.0000,0.0000,0.0000,0.0000,0.0000,nothing
134112,-0.1858,0.0603,0.0249,0.3250,1.2121,-9.7771,1.8873,7.1962,172.5579,0.0000,0.0000,0.0000,0.0000,0.0000,nothing
