timestamp_ms,gyro_x,gyro_y,gyro_z,accel_x,accel_y,accel_z,roll,pitch,yaw,adc0,adc1,adc2,adc3,adc4,Label
340599,-0.1853,0.0725,0.0337,0.3765,1.2085,-9.7364,1.7264,7.1804,172.6128,0.0000,0.0000,0.0000,0.0000,0.0000,nothing
340715,-0.2082,0.0537,-0.0003,0.3615,1.1708,-9.7034,1.7655,7.1500,172.6330,0.0000,0.0000,0.0000,0.0000,0.0000,nothing
340831,-0.3658,0.0695,0.0676,0.2616,1.5928,-9.7447,1.7406,7.3643,172.4305,0.0000,0.0000,0.0000,0.0000,0.0000,nothing
340947,-0.3911,0.0883,0.0705,0.1658,1.1977,-9.7597,1.6630,7.3274,172.4842,0.0000,0.0000,0.0000,0.0000,0.0000,nothing
341063,-0.1655,0.0386,0.0059,0.2861,1.1379,-9.7232,1.6641,7.2620,172.5477,0.0000,0.0000,0.0000,0.0000,0.0000,nothing
341179,-0.1284,0.0581,0.0612,0.3424,1.1684,-9.7106,1.6981,7.2216,172.5793,0.0000,0.0000,0.0000,0.0000,0.0000,nothing
341295,-0.1782,0.0581,0.0116,0.2436,1.2732,-9.7208,1.6707,7.2454,172.5625,0.0000,0.0000,0.0000,0.0000,0.0000,nothing
341411,-0.2247,0.0766,0.0041,0.3675,1.2277,-9.7017,1.7187,7.2416,172.5551,0.0000,0.0000,0.0000,0.0000,0.0000,nothing
341527,-0.2037,0.0762,0.0012,0.2454,1.2821,-9.7310,1.6901,7.2678,172.5362,0.0000,0.0000,0.0000,0.0000,0.0000,nothing
341643,-0.2180,0.0757,-0.0240,0.3292,1.1936,-9.7394,1.7132,7.2393,172.5586,0.0000,0.0000,0.0000,0.0000,0.0000,nothing
341759,-0.1958,0.0619,0.0564,0.3143,1.1989,-9.7130,1.7258,7.2187,172.5757,0.0000,0.0000,0.0000,0.0000,0.0000,nothing
341875,-0.2039,0.0553,-0.1076,0.2729,1.3600,-9.7412,1.7122,7.2915,172.5080,0.0000,0.0000,0.0000,0.0000,0.0000,nothing
341991,-0.2093,0.0470,0.0911,0.2831,1.2378,-9.7358,1.7062,7.2866,172.5142,0.0000,0.0000,0.0000,0.0000,0.0000,nothing
342107,-0.1750,0.0817,-0.0371,0.3562,1.2366,-9.7346,1.7435,7.2815,172.5105,0.0000,0.0000,0.0000,0.0000,0.0000,nothing
342223,-0.2144,0.0581,0.0098,0.3208,1.2265,-9.7495,1.7561,7.2700,172.5187,0.0000,0.0000,0.0000,0.0000,0.0000,nothing
342339,-0.2037,0.0791,-0.0334,0.2664,1.2899,-9.7130,1.7363,7.2991,172.4950,0.0000,0.0000,0.0000,0.0000,0.0000,nothing
342455,-0.2154,0.0932,0.0183,0.3005,1.2223,-9.7376,1.7380,7.2843,172.5090,0.0000,0.0000,0.0000,0.0000,0.0000,nothing
342571,-0.2428,0.0776,-0.0027,0.2759,1.2277,-9.7394,1.7252,7.2740,172.5220,0.0000,0.0000,0.0000,0.0000,0.0000,nothing
342687,-0.2090,0.0853,-0.0294,0.3202,1.1953,-9.7471,1.7395,7.2454,172.5466,0.0000,0.0000,0.0000,0.0000,0.0000,nothing
342803,-0.2283,0.0728,0.0867,0.3316,1.2235,-9.7364,1.7591,7.2367,172.5504,0.0000,0.0000,0.0000,0.0000,0.0000,nothing
342919,-0.2176,0.0725,-0.0230,0.2921,1.2468,-9.7250,1.7538,7.2433,172.5452,0.0000,0.0000,0.0000,0.0000,0.0000,nothing
343035,-0.2138,0.0792,-0.0357,0.3160,1.2277,-9.7322,1.7630,7.2375,172.5486,0.0000,0.0000,0.0000,0.0000,0.0000,nothing
343151,-0.2363,0.0327,0.0473,0.2897,1.1768,-9.7442,1.7558,7.2021,172.5848,0.0000,0.0000,0.0000,0.0000,0.0000,nothing
343267,-0.1982,0.0778,0.0485,0.2640,1.2606,-9.7609,1.7338,7.2175,172.5750,0.0000,0.0000,0.0000,0.0000,0.0000,nothing
343383,-0.1971,0.0459,-0.0667,0.3286,1.2283,-9.7040,1.7527,7.2168,172.5712,0.0000,0.0000,0.0000,0.0000,0.0000,nothing
343499,-0.1881,0.0971,0.0018,0.3723,1.2079,-9.7118,1.7953,7.2036,172.5738,0.0000,0.0000,0.0000,0.0000,0.0000,nothing
343615,-0.1843,0.1731,0.0683,0.4394,1.8466,-9.6382,1.8725,7.5670,172.2022,0.0000,0.0000,0.0000,0.0000,0.0000,nothing
343731,-0.3542,0.1647,-0.0011,0.3567,1.2043,-9.7028,1.8941,7.5175,172.2449,0.0000,0.0000,0.0000,0.0000,0.0000,nothing
343847,-0.2450,0.0874,0.0604,0.3298,1.1133,-9.7382,1.8975,7.4176,172.3409,0.0000,0.0000,0.0000,0.0000,0.0000,nothing
343963,-0.1636,0.0419,0.0496,0.2538,1.1505,-9.7328,1.8561,7.3498,172.4169,0.0000,0.0000,0.0000,0.0000,0.0000,nothing
344079,-0.1821,0.0338,-0.0248,0.2903,1.2283,-9.7400,1.8399,7.3332,172.4370,0.0000,0.0000,0.0000,0.0000,0.0000,nothing
344195,-0.1928,0.0529,0.0037,0.3322,1.2325,-9.7226,1.8500,7.3219,172.4455,0.0000,0.0000,0.0000,0.0000,0.0000,nothing
344311,-0.2042,0.0780,-0.0161,0.2849,1.2378,-9.7304,1.8314,7.3144,172.4574,0.0000,0.0000,0.0000,0.0000,0.0000,nothing
344427,-0.1835,0.0942,0.0213,0.3101,1.2295,-9.7208,1.8295,7.3035,172.4684,0.0000,0.0000,0.0000,0.0000,0.0000,nothing
344543,-0.1940,0.0815,0.0113,0.2861,1.2253,-9.7280,1.8137,7.2907,172.4847,0.0000,0.0000,0.0000,0.0000,0.0000,nothing
344659,-0.1828,0.0579,-0.0480,0.3101,1.1630,-9.7352,1.8135,7.2425,172.5315,0.0000,0.0000,0.0000,0.0000,0.0000,nothing
344775,-0.2003,0.0449,-0.0173,0.1544,1.2181,-9.6987,1.7229,7.2342,172.5614,0.0000,0.0000,0.0000,0.0000,0.0000,nothing
344891,-0.1977,0.0731,-0.0604,0.3328,1.2390,-9.7507,1.7446,7.2345,172.5559,0.0000,0.0000,0.0000,0.0000,0.0000,nothing
345007,-0.2185,0.0708,0.0740,0.3322,1.2283,-9.7388,1.7640,7.2295,172.5562,0.0000,0.0000,0.0000,0.0000,0.0000,nothing
345123,-0.2014,0.0553,-0.0334,0.2909,1.2456,-9.7513,1.7571,7.2342,172.5533,0.0000,0.0000,0.0000,0.0000,0.0000,nothing
345239,-0.2093,0.0687,0.0387,0.3107,1.2205,-9.7400,1.7627,7.2246,172.5612,0.0000,0.0000,0.0000,0.0000,0.0000,nothing
345355,-0.1877,0.0699,-0.0643,0.3328,1.2097,-9.7262,1.7809,7.2107,172.5703,0.0000,0.0000,0.0000,0.0000,0.0000,nothing
345471,-0.2089,0.0708,-0.0049,0.2981,1.2235,-9.7346,1.7768,7.2057,172.5762,0.0000,0.0000,0.0000,0.0000,0.0000,nothing
345587,-0.2054,0.0947,-0.0341,0.3119,1.2372,-9.7070,1.7816,7.2111,172.5698,0.0000,0.0000,0.0000,0.0000,0.0000,nothing
345703,-0.2409,0.0327,-0.0354,0.3178,1.2378,-9.7166,1.7893,7.2156,172.5635,0.0000,0.0000,0.0000,0.0000,0.0000,nothing
345819,-0.2289,0.0694,0.0583,0.3250,1.1965,-9.7376,1.8001,7.1942,172.5817,0.0000,0.0000,0.0000,0.0000,0.0000,nothing
345935,-0.2105,0.0721,0.0255,0.3119,1.2223,-9.7100,1.8026,7.1919,172.5833,0.0000,0.0000,0.0000,0.0000,0.0000,nothing
346051,-0.1835,0.0496,0.0281,0.3095,1.2265,-9.7011,1.8036,7.1929,172.5821,0.0000,0.0000,0.0000,0.0000,0.0000,nothing
346167,-0.1869,0.0727,0.0405,0.3418,1.2528,-9.6945,1.8235,7.2094,172.5611,0.0000,0.0000,0.0000,0.0000,0.0000,nothing
346283,-0.2268,0.0701,0.0882,0.3154,1.2175,-9.7184,1.8256,7.2022,172.5677,0.0000,0.0000,0.0000,0.0000,0.0000,nothing
346399,-0.1945,0.0690,0.0130,0.3041,1.2402,-9.7328,1.8205,7.2078,172.5634,0.0000,0.0000,0.0000,0.0000,0.0000,nothing
346515,-0.1941,0.0800,-0.0106,0.2777,1.2474,-9.7190,1.8009,7.2181,172.5583,0.0000,0.0000,0.0000,0.0000,0.0000,nothing
346631,-0.2414,0.0751,0.0053,0.3639,1.1983,-9.7537,1.8329,7.1962,172.5716,0.0000,0.0000,0.0000,0.0000,0.0000,nothing
346747,-0.1896,0.0444,0.0206,0.3029,1.1900,-9.6861,1.8274,7.1767,172.5919,0.0000,0.0000,0.0000,0.0000,0.0000,nothing
346863,-0.2348,0.1001,0.0405,0.3448,1.3318,-9.6352,1.8476,7.2451,172.5206,0.0000,0.0000,0.0000,0.0000,0.0000,สาม
346979,-0.2757,0.1048,0.1020,0.2903,1.3294,-9.6621,1.8334,7.3035,172.4675,0.0000,0.0000,0.0000,0.0000,0.0000,สาม
347095,-0.1973,0.0939,-0.0724,0.3358,1.1283,-9.7531,1.8460,7.2324,172.5333,0.0000,0.0000,0.0000,0.0000,0.0000,สาม
347211,-0.1290,0.0612,0.0068,0.3262,1.1600,-9.7442,1.8518,7.1876,172.5752,0.0000,0.0000,0.0000,0.0000,0.0000,สาม
347327,-0.1731,0.0428,0.0206,0.3436,1.2331,-9.7298,1.8673,7.1907,172.5683,0.0000,0.0000,0.0000,0.0000,0.0000,สาม
347443,-0.1738,0.0668,-0.0408,0.3460,1.2612,-9.6999,1.8831,7.2119,172.5437,0.0000,0.0000,0.0000,0.0000,0.0000,สาม
347559,-0.2038,0.0560,0.0215,0.3143,1.2803,-9.7184,1.8784,7.2409,172.5169,0.0000,0.0000,0.0000,0.0000,0.0000,สาม
347675,-0.2474,0.0897,-0.0631,0.2975,1.2283,-9.7394,1.8641,7.2353,172.5260,0.0000,0.0000,0.0000,0.0000,0.0000,สาม
347791,-0.2173,0.0766,0.0397,0.2831,1.2181,-9.7280,1.8431,7.2251,172.5410,0.0000,0.0000,0.0000,0.0000,0.0000,สาม
347907,-0.1835,0.0754,-0.0564,0.2538,1.1918,-9.7430,1.8069,7.1997,172.5747,0.0000,0.0000,0.0000,0.0000,0.0000,สาม
348023,-0.1962,0.0660,0.0294,0.3172,1.2073,-9.7477,1.8112,7.1854,172.5875,0.0000,0.0000,0.0000,0.0000,0.0000,สาม
348139,-0.1722,0.0683,0.1367,0.3131,1.2265,-9.7513,1.8125,7.1834,172.5891,0.0000,0.0000,0.0000,0.0000,0.0000,สาม
348255,-0.1865,0.0723,-0.0491,0.1706,1.2582,-9.6909,1.7315,7.2047,172.5880,0.0000,0.0000,0.0000,0.0000,0.0000,สาม
348371,-0.1749,0.0695,-0.0450,0.2712,1.2181,-9.7531,1.7164,7.1958,172.6002,0.0000,0.0000,0.0000,0.0000,0.0000,สาม
348487,-0.1907,0.0720,-0.0350,0.3304,1.2283,-9.7346,1.7376,7.1950,172.5960,0.0000,0.0000,0.0000,0.0000,0.0000,สาม
348603,-0.2244,0.0656,0.0320,0.2712,1.2007,-9.7298,1.7223,7.1787,172.6154,0.0000,0.0000,0.0000,0.0000,0.0000,สาม
348719,-0.2129,0.0847,-0.0753,0.2777,1.2145,-9.7184,1.7125,7.1729,172.6234,0.0000,0.0000,0.0000,0.0000,0.0000,สาม
348835,-0.1962,0.0778,0.0034,0.3160,1.2384,-9.7334,1.7258,7.1804,172.6131,0.0000,0.0000,0.0000,0.0000,0.0000,สาม
348951,-0.1926,0.0612,0.0124,0.2915,1.2528,-9.7418,1.7232,7.1948,172.5996,0.0000,0.0000,0.0000,0.0000,0.0000,สาม
349067,-0.1787,0.0793,0.0282,0.3316,1.2157,-9.7424,1.7443,7.1862,172.6029,0.0000,0.0000,0.0000,0.0000,0.0000,สาม
349183,-0.2030,0.0464,0.0342,0.3023,1.2193,-9.7322,1.7464,7.1814,172.6072,0.0000,0.0000,0.0000,0.0000,0.0000,สาม
349299,-0.2019,0.0887,0.0004,0.2789,1.2025,-9.7382,1.7346,7.1669,172.6240,0.0000,0.0000,0.0000,0.0000,0.0000,สาม
349415,-0.2158,0.0705,0.0376,0.3226,1.2145,-9.7238,1.7497,7.1618,172.6254,0.0000,0.0000,0.0000,0.0000,0.0000,สาม
349531,-0.2275,0.0603,-0.1149,0.2999,1.2199,-9.7436,1.7497,7.1589,172.6282,0.0000,0.0000,0.0000,0.0000,0.0000,สาม
349647,-0.1930,0.0957,-0.0314,0.2801,1.2426,-9.7352,1.7382,7.1701,172.6201,0.0000,0.0000,0.0000,0.0000,0.0000,สาม
349763,-0.1944,0.0885,0.0409,0.3262,1.2259,-9.7244,1.7550,7.1712,172.6150,0.0000,0.0000,0.0000,0.0000,0.0000,สาม
349879,-0.2076,0.0769,0.0288,0.2640,1.2349,-9.7274,1.7337,7.1773,172.6141,0.0000,0.0000,0.0000,0.0000,0.0000,สาม
349995,-0.2191,0.0736,-0.0256,0.3202,1.2349,-9.7621,1.7468,7.1801,172.6083,0.0000,0.0000,0.0000,0.0000,0.0000,สาม
350111,-0.2391,0.0890,-0.0551,0.2903,1.2313,-9.7286,1.7417,7.1831,172.6066,0.0000,0.0000,0.0000,0.0000,0.0000,สาม
350227,-0.2079,0.0652,0.0169,0.2909,1.2313,-9.7232,1.7375,7.1862,172.6046,0.0000,0.0000,0.0000,0.0000,0.0000,สาม
350343,-0.2206,0.0724,0.0470,0.3406,1.1936,-9.7202,1.7629,7.1672,172.6170,0.0000,0.0000,0.0000,0.0000,0.0000,สาม
350459,-0.1977,0.0867,-0.0598,0.2945,1.2145,-9.7232,1.7588,7.1621,172.6229,0.0000,0.0000,0.0000,0.0000,0.0000,สาม
350575,-0.1934,0.0683,-0.0104,0.2777,1.2253,-9.7226,1.7453,7.1639,172.6244,0.0000,0.0000,0.0000,0.0000,0.0000,สาม
350691,-0.2112,0.0513,-0.0184,0.3083,1.1822,-9.7256,1.7509,7.1402,172.6460,0.0000,0.0000,0.0000,0.0000,0.0000,สาม
350807,-0.1885,0.0930,0.0318,0.2951,1.2013,-9.7148,1.7485,7.1309,172.6557,0.0000,0.0000,0.0000,0.0000,0.0000,สาม
350923,-0.1710,0.0796,0.0616,0.3047,1.2205,-9.7244,1.7517,7.1328,172.6531,0.0000,0.0000,0.0000,0.0000,0.0000,สาม
351039,-0.2027,0.0777,0.0488,0.3077,1.2372,-9.7346,1.7561,7.1435,172.6416,0.0000,0.0000,0.0000,0.0000,0.0000,สาม
351155,-0.2151,0.0912,-0.0607,0.2987,1.2013,-9.7585,1.7545,7.1306,172.6545,0.0000,0.0000,0.0000,0.0000,0.0000,สาม
351271,-0.1647,0.0988,0.0626,0.2927,1.2450,-9.7238,1.7501,7.1469,172.6398,0.0000,0.0000,0.0000,0.0000,0.0000,สาม
351387,-0.1459,0.0837,-0.0248,0.2939,1.2121,-9.7154,1.7470,7.1430,172.6443,0.0000,0.0000,0.0000,0.0000,0.0000,สาม
351503,-0.1959,0.0804,0.0249,0.3137,1.2450,-9.7286,1.7555,7.1576,172.6281,0.0000,0.0000,0.0000,0.0000,0.0000,สาม
351619,-0.1963,0.0746,0.0000,0.3005,1.2133,-9.7082,1.7559,7.1539,172.6316,0.0000,0.0000,0.0000,0.0000,0.0000,สาม
351735,-0.2125,0.0714,-0.0057,0.3298,1.2175,-9.7298,1.7729,7.1513,172.6299,0.0000,0.0000,0.0000,0.0000,0.0000,สาม
351851,-0.2176,0.0709,0.0897,0.4591,1.2283,-9.7328,1.8637,7.1548,172.6040,0.0000,0.0000,0.0000,0.0000,0.0000,สาม
351967,-0.1885,0.0624,0.0391,0.1568,1.2372,-9.7076,1.7693,7.1656,172.6170,0.0000,0.0000,0.0000,0.0000,0.0000,สาม
352083,-0.2119,0.0643,-0.0514,0.3328,1.2301,-9.7232,1.7869,7.1696,172.6088,0.0000,0.0000,0.0000,0.0000,0.0000,สาม
352199,-0.2125,0.0676,0.0994,0.3059,1.2636,-9.7316,1.7867,7.1921,172.5870,0.0000,0.0000,0.0000,0.0000,0.0000,สาม
352315,-0.2263,0.0802,0.0301,0.3214,1.2133,-9.7160,1.7961,7.1844,172.5922,0.0000,0.0000,0.0000,0.0000,0.0000,สาม
352431,-0.2143,0.0810,-0.0421,0.2975,1.2313,-9.7023,1.7907,7.1888,172.5892,0.0000,0.0000,0.0000,0.0000,0.0000,สาม
352547,-0.2082,0.0855,0.0076,0.2765,1.1445,-9.7136,1.7736,7.1417,172.6391,0.0000,0.0000,0.0000,0.0000,0.0000,สาม
352663,-0.1201,0.0694,-0.0046,0.3190,1.1852,-9.7214,1.7828,7.1223,172.6557,0.0000,0.0000,0.0000,0.0000,0.0000,สาม
352779,-0.1395,0.0593,0.0116,0.3723,1.2630,-9.7340,1.8218,7.1489,172.6203,0.0000,0.0000,0.0000,0.0000,0.0000,สาม
352895,-0.4297,0.0845,0.0034,0.2741,1.1092,-9.9082,1.7968,7.0713,172.7017,0.0000,0.0000,0.0000,0.0000,0.0000,break_time
353011,-0.1277,-0.0249,0.0151,0.3029,1.0523,-9.8274,1.7926,6.9745,172.7966,0.0000,0.0000,0.0000,0.0000,0.0000,break_time
353127,-0.0721,0.0249,-0.0083,0.2783,1.1672,-9.7184,1.7763,6.9616,172.8131,0.0000,0.0000,0.0000,0.0000,0.0000,break_time
353243,-0.1460,0.0588,-0.0149,0.3340,1.3061,-9.7286,1.7936,7.0297,172.7429,0.0000,0.0000,0.0000,0.0000,0.0000,break_time
353359,-0.1982,0.0799,0.0509,0.3220,1.2408,-9.7064,1.8027,7.0547,172.7163,0.0000,0.0000,0.0000,0.0000,0.0000,break_time
353475,-0.1834,0.0832,-0.1223,0.3448,1.2450,-9.7442,1.8234,7.0769,172.6896,0.0000,0.0000,0.0000,0.0000,0.0000,break_time
353591,-0.2119,0.0855,0.0057,0.3286,1.2193,-9.6921,1.8337,7.0858,172.6784,0.0000,0.0000,0.0000,0.0000,0.0000,break_time
353707,-0.2256,0.0477,-0.0676,0.2951,1.2516,-9.7495,1.8223,7.1085,172.6593,0.0000,0.0000,0.0000,0.0000,0.0000,break_time
353823,-0.2112,0.0622,0.0285,0.3011,1.2462,-9.7430,1.8156,7.1262,172.6438,0.0000,0.0000,0.0000,0.0000,0.0000,break_time
353939,-0.1887,0.0698,0.0061,0.2993,1.2378,-9.7208,1.8090,7.1390,172.6331,0.0000,0.0000,0.0000,0.0000,0.0000,break_time
354055,-0.2114,0.0819,-0.0530,0.3292,1.2079,-9.7226,1.8206,7.1329,172.6361,0.0000,0.0000,0.0000,0.0000,0.0000,break_time
354171,-0.1964,0.0908,0.0697,0.3137,1.2019,-9.7286,1.8218,7.1235,172.6449,0.0000,0.0000,0.0000,0.0000,0.0000,break_time
354287,-0.2105,0.0706,0.0350,0.2897,1.1947,-9.7382,1.8087,7.1103,172.6609,0.0000,0.0000,0.0000,0.0000,0.0000,break_time
354403,-0.1787,0.0695,-0.0408,0.2867,1.2271,-9.7364,1.7952,7.1173,172.6575,0.0000,0.0000,0.0000,0.0000,0.0000,break_time
354519,-0.2023,0.0717,-0.0484,0.3262,1.2247,-9.7525,1.8058,7.1209,172.6514,0.0000,0.0000,0.0000,0.0000,0.0000,break_time
354635,-0.2054,0.0833,0.0053,0.3053,1.2259,-9.7040,1.8040,7.1284,172.6445,0.0000,0.0000,0.0000,0.0000,0.0000,break_time
354751,-0.2232,0.0522,0.0359,0.3244,1.2265,-9.7555,1.8126,7.1318,172.6392,0.0000,0.0000,0.0000,0.0000,0.0000,break_time
354867,-0.2147,0.0841,0.0001,0.3119,1.2474,-9.6783,1.8144,7.1526,172.6186,0.0000,0.0000,0.0000,0.0000,0.0000,break_time
354983,-0.2067,0.0937,0.0102,0.2777,1.2073,-9.7136,1.7955,7.1455,172.6301,0.0000,0.0000,0.0000,0.0000,0.0000,break_time
355099,-0.2024,0.0912,0.0123,0.2999,1.2366,-9.7436,1.7908,7.1540,172.6230,0.0000,0.0000,0.0000,0.0000,0.0000,break_time
355215,-0.2278,0.0836,0.0837,0.3298,1.2235,-9.7430,1.8041,7.1539,172.6198,0.0000,0.0000,0.0000,0.0000,0.0000,break_time
355331,-0.1945,0.0649,0.0705,0.3160,1.2241,-9.7160,1.8086,7.1562,172.6165,0.0000,0.0000,0.0000,0.0000,0.0000,break_time
355447,-0.2123,0.0796,0.0042,0.4591,1.2115,-9.7394,1.8956,7.1490,172.6014,0.0000,0.0000,0.0000,0.0000,0.0000,break_time
355563,-0.1907,0.0653,0.0427,0.3250,1.2229,-9.6849,1.8968,7.1533,172.5970,0.0000,0.0000,0.0000,0.0000,0.0000,break_time
355679,-0.2105,0.0544,-0.0836,0.3017,1.2205,-9.7178,1.8835,7.1535,172.6002,0.0000,0.0000,0.0000,0.0000,0.0000,break_time
355795,-0.1939,0.1070,0.0386,0.2939,1.2157,-9.7316,1.8668,7.1499,172.6080,0.0000,0.0000,0.0000,0.0000,0.0000,break_time
355911,-0.1919,0.0612,0.0204,0.3184,1.0738,-9.7400,1.8663,7.0637,172.6915,0.0000,0.0000,0.0000,0.0000,0.0000,nothing
356027,-0.1869,0.0958,0.0455,0.3154,1.2378,-9.7364,1.8637,7.0816,172.6749,0.0000,0.0000,0.0000,0.0000,0.0000,nothing
356143,-0.1887,0.0934,0.0254,0.2777,1.2241,-9.6945,1.8402,7.0927,172.6701,0.0000,0.0000,0.0000,0.0000,0.0000,nothing
356259,-0.2177,0.0814,0.0379,0.3005,1.2103,-9.7597,1.8312,7.0900,172.6750,0.0000,0.0000,0.0000,0.0000,0.0000,nothing
356375,-0.1845,0.0941,0.0457,0.2987,1.2696,-9.7142,1.8227,7.1252,172.6430,0.0000,0.0000,0.0000,0.0000,0.0000,สอง
356491,-0.2247,0.0720,0.0706,0.2837,0.9841,-9.7699,1.8060,6.9875,172.7807,0.0000,0.0000,0.0000,0.0000,0.0000,สอง
356607,-0.0319,0.0413,-0.0810,0.4537,1.3737,-9.7298,1.8900,7.0918,172.6582,0.0000,0.0000,0.0000,0.0000,0.0000,สอง
356723,-0.1665,0.0582,-0.0566,0.4465,1.3109,-9.7184,1.9617,7.1501,172.5829,0.0000,0.0000,0.0000,0.0000,0.0000,สอง
356839,-0.2318,0.0954,-0.0269,0.3520,1.3013,-9.7208,1.9711,7.1971,172.5351,0.0000,0.0000,0.0000,0.0000,0.0000,สอง
356955,-0.2266,0.0458,-0.0191,0.2795,1.2019,-9.7400,1.9371,7.1806,172.5601,0.0000,0.0000,0.0000,0.0000,0.0000,สอง
357071,-0.2123,0.0721,0.0573,0.3346,1.2085,-9.7214,1.9390,7.1707,172.5690,0.0000,0.0000,0.0000,0.0000,0.0000,สอง
357187,-0.2213,0.0533,0.0528,0.3089,1.2043,-9.7184,1.9258,7.1598,172.5831,0.0000,0.0000,0.0000,0.0000,0.0000,สอง
357303,-0.2215,0.0757,0.0012,0.2771,1.2678,-9.7370,1.8949,7.1854,172.5665,0.0000,0.0000,0.0000,0.0000,0.0000,สอง
357419,-0.1982,0.0605,-0.0015,0.3382,1.2037,-9.7052,1.9034,7.1734,172.5758,0.0000,0.0000,0.0000,0.0000,0.0000,สอง
357535,-0.2030,0.0379,0.0904,0.2807,1.2438,-9.7304,1.8770,7.1843,172.5721,0.0000,0.0000,0.0000,0.0000,0.0000,สอง
357651,-0.2263,0.0766,-0.0746,0.3292,1.2139,-9.7274,1.8816,7.1768,172.5781,0.0000,0.0000,0.0000,0.0000,0.0000,สอง
357767,-0.2120,0.0859,0.0341,0.2921,1.2277,-9.6999,1.8646,7.1801,172.5793,0.0000,0.0000,0.0000,0.0000,0.0000,สอง
357883,-0.2042,0.0802,0.0030,0.3502,1.2343,-9.7358,1.8825,7.1841,172.5708,0.0000,0.0000,0.0000,0.0000,0.0000,สอง
357999,-0.1974,0.0706,0.0585,0.2484,1.2355,-9.7005,1.8399,7.1913,172.5746,0.0000,0.0000,0.0000,0.0000,0.0000,สอง
358115,-0.1907,0.0525,0.0116,0.3382,1.2253,-9.7519,1.8530,7.1879,172.5747,0.0000,0.0000,0.0000,0.0000,0.0000,สอง
358231,-0.1847,0.0723,-0.0098,0.2460,1.2558,-9.7196,1.8115,7.2051,172.5683,0.0000,0.0000,0.0000,0.0000,0.0000,สอง
358347,-0.2260,0.0743,0.0935,0.3137,1.2301,-9.7376,1.8134,7.2042,172.5688,0.0000,0.0000,0.0000,0.0000,0.0000,สอง
358463,-0.2239,0.0698,-0.0279,0.2807,1.2121,-9.7058,1.7965,7.1953,172.5815,0.0000,0.0000,0.0000,0.0000,0.0000,สอง
358579,-0.1598,0.0579,-0.0187,0.2759,1.2247,-9.7226,1.7782,7.1934,172.5878,0.0000,0.0000,0.0000,0.0000,0.0000,สอง
358695,-0.2135,0.0924,0.0330,0.3256,1.2654,-9.7244,1.7905,7.2151,172.5638,0.0000,0.0000,0.0000,0.0000,0.0000,สอง
358811,-0.1971,0.0937,-0.0155,0.2951,1.2863,-9.7256,1.7838,7.2467,172.5347,0.0000,0.0000,0.0000,0.0000,0.0000,สอง
358927,-0.2060,0.0776,0.0245,0.2915,1.2594,-9.7005,1.7761,7.2614,172.5223,0.0000,0.0000,0.0000,0.0000,0.0000,สอง
359043,-0.1933,0.0755,-0.0368,0.3897,1.2247,-9.7214,1.8262,7.2527,172.5185,0.0000,0.0000,0.0000,0.0000,0.0000,สอง
359159,-0.2312,0.0709,-0.0061,0.3196,1.2462,-9.7118,1.8306,7.2583,172.5120,0.0000,0.0000,0.0000,0.0000,0.0000,สอง
359275,-0.2323,0.0675,0.0082,0.3789,1.2648,-9.7232,1.8689,7.2731,172.4882,0.0000,0.0000,0.0000,0.0000,0.0000,สอง
359391,-0.4885,0.0859,0.0363,0.1215,1.5347,-9.6615,1.7534,7.4480,172.3461,0.0000,0.0000,0.0000,0.0000,0.0000,break_time
359507,-0.1515,-0.0095,0.0196,0.0239,0.9362,-9.7525,1.5923,7.2519,172.5735,0.0000,0.0000,0.0000,0.0000,0.0000,break_time
359623,-0.1057,0.0233,-0.0252,0.3813,1.2420,-9.7394,1.6556,7.2530,172.5585,0.0000,0.0000,0.0000,0.0000,0.0000,break_time
359739,-0.1629,0.0589,0.0060,0.3047,1.2666,-9.7286,1.6679,7.2691,172.5400,0.0000,0.0000,0.0000,0.0000,0.0000,break_time
359855,-0.2113,0.0941,-0.0661,0.3148,1.2570,-9.7358,1.6849,7.2775,172.5279,0.0000,0.0000,0.0000,0.0000,0.0000,break_time
359971,-0.2225,0.0705,0.0356,0.3334,1.2013,-9.7154,1.7114,7.2543,172.5445,0.0000,0.0000,0.0000,0.0000,0.0000,break_time
360087,-0.1786,0.0740,-0.0590,0.2376,1.1888,-9.7400,1.6790,7.2245,172.5809,0.0000,0.0000,0.0000,0.0000,0.0000,break_time
360203,-0.1821,0.0864,-0.0055,0.2963,1.1882,-9.7453,1.6839,7.1968,172.6068,0.0000,0.0000,0.0000,0.0000,0.0000,break_time
360319,-0.1787,0.0609,0.0731,0.3011,1.2229,-9.7268,1.6915,7.1934,172.6084,0.0000,0.0000,0.0000,0.0000,0.0000,break_time
360435,-0.2072,0.0870,0.0289,0.3029,1.2546,-9.7160,1.6994,7.2095,172.5909,0.0000,0.0000,0.0000,0.0000,0.0000,break_time
360551,-0.1975,0.0413,0.0153,0.3190,1.2390,-9.7136,1.7160,7.2150,172.5816,0.0000,0.0000,0.0000,0.0000,0.0000,break_time
360667,-0.2267,0.0911,0.0459,0.2837,1.2325,-9.7130,1.7104,7.2164,172.5816,0.0000,0.0000,0.0000,0.0000,0.0000,break_time
360783,-0.2035,0.0477,-0.0270,0.3089,1.2235,-9.7412,1.7196,7.2103,172.5854,0.0000,0.0000,0.0000,0.0000,0.0000,break_time
360899,-0.2001,0.0858,0.0330,0.3364,1.2157,-9.7663,1.7435,7.1983,172.5914,0.0000,0.0000,0.0000,0.0000,0.0000,break_time
361015,-0.1864,0.0836,0.0143,0.3017,1.2259,-9.7292,1.7454,7.1963,172.5929,0.0000,0.0000,0.0000,0.0000,0.0000,break_time
361131,-0.1919,0.0774,0.0284,0.3137,1.2295,-9.7250,1.7541,7.1968,172.5903,0.0000,0.0000,0.0000,0.0000,0.0000,break_time
361247,-0.2109,0.0597,0.0166,0.2945,1.2073,-9.7262,1.7508,7.1844,172.6031,0.0000,0.0000,0.0000,0.0000,0.0000,break_time
361363,-0.1866,0.0609,0.0303,0.3202,1.2235,-9.7388,1.7626,7.1817,172.6030,0.0000,0.0000,0.0000,0.0000,0.0000,break_time
361479,-0.2184,0.0763,-0.0181,0.3232,1.2420,-9.6975,1.7757,7.1929,172.5889,0.0000,0.0000,0.0000,0.0000,0.0000,break_time
361595,-0.2060,0.0668,0.0262,0.2819,1.1983,-9.7645,1.7622,7.1729,172.6115,0.0000,0.0000,0.0000,0.0000,0.0000,break_time
361711,-0.2069,0.0851,0.0712,0.2963,1.2277,-9.7094,1.7594,7.1759,172.6093,0.0000,0.0000,0.0000,0.0000,0.0000,break_time
361827,-0.1943,0.0838,0.0479,0.3238,1.2211,-9.7232,1.7727,7.1738,172.6082,0.0000,0.0000,0.0000,0.0000,0.0000,break_time
361943,-0.1798,0.0844,0.0402,0.3095,1.2366,-9.7220,1.7763,7.1809,172.6004,0.0000,0.0000,0.0000,0.0000,0.0000,break_time
362059,-0.2095,0.0766,0.0219,0.3334,1.2444,-9.7316,1.7933,7.1911,172.5863,0.0000,0.0000,0.0000,0.0000,0.0000,break_time
362175,-0.2184,0.0952,-0.0164,0.3298,1.2540,-9.7184,1.8068,7.2069,172.5678,0.0000,0.0000,0.0000,0.0000,0.0000,break_time
362291,-0.1984,0.0693,-0.0667,0.2706,1.2390,-9.7334,1.7840,7.2114,172.5690,0.0000,0.0000,0.0000,0.0000,0.0000,break_time
362407,-0.2164,0.0750,0.0136,0.3053,1.2426,-9.7244,1.7840,7.2181,172.5625,0.0000,0.0000,0.0000,0.0000,0.0000,nothing
362523,-0.1918,0.0746,-0.0357,0.4525,1.2019,-9.7208,1.8701,7.2005,172.5582,0.0000,0.0000,0.0000,0.0000,0.0000,nothing
362639,-0.2000,0.0675,-0.0222,0.4501,1.2474,-9.7406,1.9456,7.2095,172.5299,0.0000,0.0000,0.0000,0.0000,0.0000,nothing
362755,-0.2390,0.0860,0.0410,0.3334,1.2426,-9.6999,1.9463,7.2181,172.5214,0.0000,0.0000,0.0000,0.0000,0.0000,nothing
362871,-0.2179,0.0537,0.0020,0.3047,1.2103,-9.7328,1.9296,7.2048,172.5386,0.0000,0.0000,0.0000,0.0000,0.0000,nothing
362987,-0.1988,0.0813,0.0590,0.3196,1.2396,-9.7675,1.9226,7.2073,172.5381,0.0000,0.0000,0.0000,0.0000,0.0000,nothing
363103,-0.2030,0.0723,-0.0082,0.3214,1.2025,-9.7136,1.9184,7.1919,172.5540,0.0000,0.0000,0.0000,0.0000,0.0000,nothing
363219,-0.1973,0.0787,0.0085,0.2999,1.2307,-9.7268,1.9018,7.1935,172.5568,0.0000,0.0000,0.0000,0.0000,0.0000,nothing
363335,-0.2012,0.0613,0.0878,0.2765,1.2085,-9.7412,1.8730,7.1811,172.5762,0.0000,0.0000,0.0000,0.0000,0.0000,nothing
363451,-0.2125,0.0487,0.0245,0.3286,1.2229,-9.7280,1.8776,7.1791,172.5770,0.0000,0.0000,0.0000,0.0000,0.0000,nothing
363567,-0.1939,0.0926,0.0615,0.2819,1.2205,-9.7130,1.8549,7.1771,172.5847,0.0000,0.0000,0.0000,0.0000,0.0000,nothing
363683,-0.1865,0.0594,-0.0348,0.3238,1.2343,-9.7208,1.8587,7.1826,172.5784,0.0000,0.0000,0.0000,0.0000,0.0000,nothing
363799,-0.2169,0.0887,0.0382,0.3627,1.2935,-9.7430,1.8842,7.2201,172.5355,0.0000,0.0000,0.0000,0.0000,0.0000,สี่
363915,-0.4369,0.1168,0.1418,0.1287,1.6203,-9.7052,1.7706,7.4466,172.3435,0.0000,0.0000,0.0000,0.0000,0.0000,สี่
364031,-0.2867,0.1088,-0.0357,0.1006,1.0218,-9.7609,1.6523,7.2996,172.5137,0.0000,0.0000,0.0000,0.0000,0.0000,สี่
364147,-0.1472,0.0436,0.0363,0.2927,1.1487,-9.7519,1.6578,7.2411,172.5696,0.0000,0.0000,0.0000,0.0000,0.0000,สี่
364263,-0.1557,0.0860,0.0252,0.2993,1.2199,-9.7172,1.6670,7.2322,172.5762,0.0000,0.0000,0.0000,0.0000,0.0000,สี่
364379,-0.2041,0.0667,-0.0567,0.3190,1.2570,-9.7280,1.6866,7.2448,172.5594,0.0000,0.0000,0.0000,0.0000,0.0000,สี่
364495,-0.1846,0.0564,-0.0165,0.2909,1.2636,-9.7358,1.6877,7.2595,172.5448,0.0000,0.0000,0.0000,0.0000,0.0000,สี่
364611,-0.2255,0.0810,0.0233,0.3137,1.2498,-9.7094,1.7024,7.2667,172.5345,0.0000,0.0000,0.0000,0.0000,0.0000,สี่
364727,-0.2189,0.0853,0.0319,0.3125,1.2007,-9.7412,1.7145,7.2424,172.5553,0.0000,0.0000,0.0000,0.0000,0.0000,สี่
364843,-0.1734,0.0739,0.0413,0.2837,1.1942,-9.7046,1.7093,7.2194,172.5789,0.0000,0.0000,0.0000,0.0000,0.0000,สี่
364959,-0.2049,0.0451,-0.0481,0.3113,1.2079,-9.7148,1.7204,7.2059,172.5895,0.0000,0.0000,0.0000,0.0000,0.0000,สี่
365075,-0.1812,0.0727,0.0454,0.2993,1.2588,-9.7190,1.7233,7.2229,172.5722,0.0000,0.0000,0.0000,0.0000,0.0000,สี่
365191,-0.1909,0.0975,-0.0007,0.3370,1.2151,-9.7717,1.7471,7.2090,172.5802,0.0000,0.0000,0.0000,0.0000,0.0000,สี่
365307,-0.1944,0.0772,-0.0277,0.2616,1.2426,-9.7346,1.7251,7.2153,172.5792,0.0000,0.0000,0.0000,0.0000,0.0000,สี่
365423,-0.2124,0.0736,-0.0215,0.2819,1.2169,-9.6921,1.7179,7.2091,172.5869,0.0000,0.0000,0.0000,0.0000,0.0000,สี่
365539,-0.1934,0.0664,0.0375,0.3077,1.2079,-9.7160,1.7261,7.1966,172.5972,0.0000,0.0000,0.0000,0.0000,0.0000,สี่
365655,-0.1760,0.0656,0.0469,0.2448,1.2402,-9.7477,1.6961,7.2018,172.5991,0.0000,0.0000,0.0000,0.0000,0.0000,สี่
365771,-0.1795,0.0723,0.0296,0.3364,1.1822,-9.7328,1.7230,7.1737,172.6201,0.0000,0.0000,0.0000,0.0000,0.0000,สี่
365887,-0.2102,0.0763,0.0179,0.3442,1.2570,-9.7208,1.7518,7.1927,172.5948,0.0000,0.0000,0.0000,0.0000,0.0000,สี่
366003,-0.2113,0.0905,0.0072,0.2664,1.2253,-9.7214,1.7324,7.1916,172.6006,0.0000,0.0000,0.0000,0.0000,0.0000,สี่
366119,-0.2053,0.0510,-0.0566,0.3442,1.2528,-9.7280,1.7601,7.2058,172.5801,0.0000,0.0000,0.0000,0.0000,0.0000,สี่
366235,-0.2290,0.0710,-0.0637,0.2933,1.2402,-9.7130,1.7557,7.2125,172.5746,0.0000,0.0000,0.0000,0.0000,0.0000,สี่
366351,-0.1820,0.0770,-0.0128,0.3041,1.2061,-9.7226,1.7579,7.1981,172.5881,0.0000,0.0000,0.0000,0.0000,0.0000,สี่
366467,-0.2000,0.0650,0.0278,0.3262,1.2181,-9.7298,1.7727,7.1915,172.5910,0.0000,0.0000,0.0000,0.0000,0.0000,สี่
366583,-0.1977,0.0387,0.0439,0.3065,1.2355,-9.7118,1.7747,7.1970,172.5852,0.0000,0.0000,0.0000,0.0000,0.0000,สี่
366699,-0.1851,0.0768,-0.0004,0.2927,1.2085,-9.7531,1.7678,7.1833,172.6002,0.0000,0.0000,0.0000,0.0000,0.0000,สี่
366815,-0.1926,0.0559,0.0068,0.3556,1.2295,-9.7346,1.7986,7.1843,172.5917,0.0000,0.0000,0.0000,0.0000,0.0000,สี่
366931,-0.2262,0.0671,-0.0384,0.3005,1.2145,-9.7471,1.7939,7.1758,172.6011,0.0000,0.0000,0.0000,0.0000,0.0000,สี่
367047,-0.1890,0.0799,-0.0255,0.3556,1.2355,-9.7040,1.8226,7.1833,172.5867,0.0000,0.0000,0.0000,0.0000,0.0000,สี่
367163,-0.2030,0.0770,0.0480,0.3017,1.2079,-9.7483,1.8163,7.1709,172.6003,0.0000,0.0000,0.0000,0.0000,0.0000,สี่
367279,-0.2138,0.0853,0.0308,0.3202,1.2277,-9.7304,1.8217,7.1725,172.5974,0.0000,0.0000,0.0000,0.0000,0.0000,สี่
367395,-0.2000,0.0653,-0.0173,0.3370,1.2043,-9.7382,1.8362,7.1599,172.6060,0.0000,0.0000,0.0000,0.0000,0.0000,สี่
367511,-0.1695,0.0859,-0.0368,0.2831,1.2133,-9.7298,1.8180,7.1544,172.6159,0.0000,0.0000,0.0000,0.0000,0.0000,สี่
367627,-0.1832,0.0938,0.0091,0.2999,1.2241,-9.7088,1.8117,7.1572,172.6147,0.0000,0.0000,0.0000,0.0000,0.0000,สี่
367743,-0.2414,0.0714,0.0065,0.3023,1.2390,-9.7573,1.8066,7.1649,172.6086,0.0000,0.0000,0.0000,0.0000,0.0000,สี่
367859,-0.2147,0.0653,0.0329,0.3166,1.1965,-9.7555,1.8104,7.1472,172.6247,0.0000,0.0000,0.0000,0.0000,0.0000,สี่
367975,-0.2428,0.0709,0.0266,0.2963,1.1953,-9.7334,1.8025,7.1323,172.6411,0.0000,0.0000,0.0000,0.0000,0.0000,สี่
368091,-0.1802,0.0911,0.0067,0.3208,1.1876,-9.7046,1.8101,7.1164,172.6546,0.0000,0.0000,0.0000,0.0000,0.0000,สี่
368207,-0.1947,0.0733,0.0432,0.2658,1.2133,-9.7334,1.7843,7.1151,172.6623,0.0000,0.0000,0.0000,0.0000,0.0000,สี่
368323,-0.1802,0.0892,0.0119,0.3011,1.2402,-9.6777,1.7827,7.1334,172.6449,0.0000,0.0000,0.0000,0.0000,0.0000,สี่
368439,-0.1934,0.0787,0.0324,0.3226,1.1876,-9.7166,1.7932,7.1165,172.6588,0.0000,0.0000,0.0000,0.0000,0.0000,สี่
368555,-0.1733,0.0597,-0.0465,0.3035,1.2121,-9.7256,1.7912,7.1150,172.6608,0.0000,0.0000,0.0000,0.0000,0.0000,break_time
368671,-0.1451,0.0309,-0.0408,0.2915,1.0643,-9.7142,1.7830,7.0286,172.7465,0.0000,0.0000,0.0000,0.0000,0.0000,break_time
368787,0.0543,0.0712,0.0266,0.5477,1.1104,-9.7489,1.9245,6.9746,172.7622,0.0000,0.0000,0.0000,0.0000,0.0000,break_time
368903,-0.2342,0.0408,-0.0150,0.4262,1.2780,-9.7436,1.9805,7.0238,172.6996,0.0000,0.0000,0.0000,0.0000,0.0000,break_time
369019,-0.2510,0.0784,0.0588,0.3298,1.2558,-9.7148,1.9753,7.0576,172.6685,0.0000,0.0000,0.0000,0.0000,0.0000,break_time
369135,-0.2428,0.0537,-0.0211,0.2664,1.2205,-9.7130,1.9337,7.0677,172.6699,0.0000,0.0000,0.0000,0.0000,0.0000,break_time
369251,-0.2330,0.0818,0.0119,0.3400,1.2187,-9.6855,1.9398,7.0777,172.6587,0.0000,0.0000,0.0000,0.0000,0.0000,break_time
369367,-0.1975,0.0751,0.0731,0.2861,1.1810,-9.7322,1.9130,7.0615,172.6814,0.0000,0.0000,0.0000,0.0000,0.0000,break_time
369483,-0.1835,0.0414,-0.0680,0.3400,1.2498,-9.7382,1.9200,7.0863,172.6556,0.0000,0.0000,0.0000,0.0000,0.0000,break_time
369599,-0.2007,0.0984,0.0464,0.1598,1.2420,-9.7262,1.8214,7.1054,172.6625,0.0000,0.0000,0.0000,0.0000,0.0000,break_time
369715,-0.1862,0.0971,-0.0256,0.2849,1.2552,-9.7465,1.8053,7.1284,172.6442,0.0000,0.0000,0.0000,0.0000,0.0000,break_time
369831,-0.2093,0.0738,0.0333,0.1622,1.2319,-9.6981,1.7200,7.1394,172.6542,0.0000,0.0000,0.0000,0.0000,0.0000,break_time
369947,-0.2189,0.0709,-0.0064,0.3268,1.2372,-9.7465,1.7386,7.1486,172.6409,0.0000,0.0000,0.0000,0.0000,0.0000,break_time
370063,-0.2172,0.0761,-0.0011,0.3131,1.2115,-9.7130,1.7479,7.1443,172.6428,0.0000,0.0000,0.0000,0.0000,0.0000,break_time
370179,-0.1812,0.0792,0.0035,0.3047,1.2259,-9.7106,1.7514,7.1491,172.6373,0.0000,0.0000,0.0000,0.0000,0.0000,break_time
370295,-0.1907,0.0907,-0.0350,0.3520,1.0744,-9.7436,1.7819,7.0630,172.7135,0.0000,0.0000,0.0000,0.0000,0.0000,break_time
370411,-0.1911,0.0627,-0.0255,0.2903,1.3761,-9.7292,1.7730,7.1616,172.6199,0.0000,0.0000,0.0000,0.0000,0.0000,break_time
370527,-0.1718,0.0875,0.0589,0.3047,1.2468,-9.7298,1.7736,7.1754,172.6065,0.0000,0.0000,0.0000,0.0000,0.0000,break_time
370643,-0.2209,0.0750,-0.0429,0.3496,1.2420,-9.6849,1.8012,7.1881,172.5873,0.0000,0.0000,0.0000,0.0000,0.0000,break_time
370759,-0.2266,0.0909,0.0504,0.2795,1.2331,-9.7160,1.7845,7.1923,172.5874,0.0000,0.0000,0.0000,0.0000,0.0000,break_time
370875,-0.2026,0.0697,0.0376,0.3418,1.2163,-9.7555,1.8053,7.1833,172.5910,0.0000,0.0000,0.0000,0.0000,0.0000,break_time
370991,-0.2159,0.0881,0.0461,0.2939,1.2570,-9.7118,1.7967,7.2021,172.5749,0.0000,0.0000,0.0000,0.0000,0.0000,break_time
371107,-0.2071,0.0750,-0.0211,0.3143,1.1942,-9.7483,1.8003,7.1799,172.5956,0.0000,0.0000,0.0000,0.0000,0.0000,break_time
371223,-0.2039,0.0481,0.0698,0.2724,1.2408,-9.7483,1.7789,7.1870,172.5938,0.0000,0.0000,0.0000,0.0000,0.0000,break_time
371339,-0.2063,0.0665,-0.0078,0.3430,1.2271,-9.7028,1.8018,7.1886,172.5867,0.0000,0.0000,0.0000,0.0000,0.0000,break_time
371455,-0.1960,0.0690,0.0027,0.2933,1.2307,-9.7328,1.7929,7.1901,172.5874,0.0000,0.0000,0.0000,0.0000,0.0000,break_time
371571,-0.1890,0.0738,-0.0109,0.2903,1.1900,-9.7370,1.7831,7.1675,172.6117,0.0000,0.0000,0.0000,0.0000,0.0000,break_time
371687,-0.2305,0.0757,0.0004,0.2825,1.2169,-9.6909,1.7705,7.1662,172.6161,0.0000,0.0000,0.0000,0.0000,0.0000,break_time
371803,-0.2090,0.0650,0.0030,0.3143,1.2372,-9.7023,1.7775,7.1759,172.6050,0.0000,0.0000,0.0000,0.0000,0.0000,nothing
371919,-0.2211,0.0784,0.0135,0.2933,1.2402,-9.6945,1.7717,7.1870,172.5956,0.0000,0.0000,0.0000,0.0000,0.0000,nothing
372035,-0.1523,0.1223,-0.0762,0.3490,1.2510,-9.7226,1.7984,7.2011,172.5755,0.0000,0.0000,0.0000,0.0000,0.0000,nothing
372151,-0.5640,0.1680,0.0969,0.2077,1.7406,-9.8309,1.7369,7.4896,172.3094,0.0000,0.0000,0.0000,0.0000,0.0000,หนึ่ง
372267,-0.2511,0.0204,0.0003,0.0215,0.9960,-9.7914,1.5755,7.3214,172.5092,0.0000,0.0000,0.0000,0.0000,0.0000,หนึ่ง
372383,-0.0672,0.0545,-0.0230,0.3603,1.1971,-9.7406,1.6282,7.2894,172.5290,0.0000,0.0000,0.0000,0.0000,0.0000,หนึ่ง
372499,-0.1637,0.0586,-0.0414,0.2777,1.2750,-9.7130,1.6278,7.3080,172.5110,0.0000,0.0000,0.0000,0.0000,0.0000,หนึ่ง
372615,-0.2090,0.0509,0.0577,0.3244,1.2366,-9.7178,1.6547,7.3020,172.5109,0.0000,0.0000,0.0000,0.0000,0.0000,หนึ่ง
372731,-0.2110,0.0669,-0.0386,0.2885,1.2223,-9.7017,1.6582,7.2896,172.5222,0.0000,0.0000,0.0000,0.0000,0.0000,หนึ่ง
372847,-0.2218,0.1018,-0.0140,0.3184,1.1918,-9.6879,1.6791,7.2617,172.5446,0.0000,0.0000,0.0000,0.0000,0.0000,หนึ่ง
372963,-0.1971,0.0650,0.0063,0.3214,1.2229,-9.7316,1.6989,7.2514,172.5502,0.0000,0.0000,0.0000,0.0000,0.0000,หนึ่ง
373079,-0.1955,0.0477,-0.0451,0.2340,1.2426,-9.7346,1.6656,7.2535,172.5557,0.0000,0.0000,0.0000,0.0000,0.0000,หนึ่ง
373195,-0.1955,0.0818,0.0113,0.3849,1.2588,-9.7334,1.7237,7.2645,172.5316,0.0000,0.0000,0.0000,0.0000,0.0000,หนึ่ง
373311,-0.1864,0.0626,0.0247,0.3909,1.2151,-9.7232,1.7797,7.2499,172.5326,0.0000,0.0000,0.0000,0.0000,0.0000,หนึ่ง
373427,-0.1958,0.0778,-0.0424,0.2137,1.2887,-9.7088,1.7268,7.2808,172.5151,0.0000,0.0000,0.0000,0.0000,0.0000,หนึ่ง
373543,-0.2052,0.0690,-0.0248,0.2718,1.2366,-9.7430,1.7126,7.2758,172.5232,0.0000,0.0000,0.0000,0.0000,0.0000,หนึ่ง
373659,-0.2185,0.0754,0.0146,0.3795,1.2618,-9.7477,1.7626,7.2853,172.5023,0.0000,0.0000,0.0000,0.0000,0.0000,หนึ่ง
373775,-0.2263,0.0950,-0.0341,0.2724,1.2648,-9.7112,1.7457,7.2985,172.4934,0.0000,0.0000,0.0000,0.0000,0.0000,หนึ่ง
373891,-0.2322,0.0721,0.0841,0.2927,1.2061,-9.6987,1.7426,7.2773,172.5148,0.0000,0.0000,0.0000,0.0000,0.0000,หนึ่ง
374007,-0.2211,0.0878,-0.0523,0.3196,1.2061,-9.7268,1.7552,7.2560,172.5325,0.0000,0.0000,0.0000,0.0000,0.0000,หนึ่ง
374123,-0.0479,-0.0018,-0.0207,0.3340,0.5872,-9.2090,1.7856,6.9143,172.8566,0.0000,0.0000,0.0000,0.0000,0.0000,หนึ่ง
374239,0.0916,-0.0530,0.0012,0.4836,0.9386,-9.7998,1.8893,6.7680,172.9709,0.0000,0.0000,0.0000,0.0000,0.0000,หนึ่ง
374355,-0.1463,0.0199,-0.0314,0.4507,1.3169,-9.7244,1.9638,6.8622,172.8597,0.0000,0.0000,0.0000,0.0000,0.0000,หนึ่ง
374471,-0.2084,0.0695,0.0153,0.3196,1.3109,-9.6987,1.9545,6.9455,172.7821,0.0000,0.0000,0.0000,0.0000,0.0000,หนึ่ง
374587,-0.2488,0.0897,0.0019,0.2969,1.2504,-9.7513,1.9319,6.9816,172.7535,0.0000,0.0000,0.0000,0.0000,0.0000,หนึ่ง
374703,-0.2263,0.0499,0.0072,0.2526,1.1846,-9.7382,1.8860,6.9767,172.7704,0.0000,0.0000,0.0000,0.0000,0.0000,หนึ่ง
374819,-0.1527,0.0879,-0.0244,0.3137,1.1852,-9.7543,1.8802,6.9714,172.7770,0.0000,0.0000,0.0000,0.0000,0.0000,หนึ่ง
374935,-0.2059,0.0739,-0.0120,0.3143,1.2893,-9.7142,1.8759,7.0300,172.7215,0.0000,0.0000,0.0000,0.0000,0.0000,หนึ่ง
375051,-0.1881,0.0802,0.0053,0.2903,1.2750,-9.7046,1.8582,7.0752,172.6824,0.0000,0.0000,0.0000,0.0000,0.0000,หนึ่ง
375167,-0.2059,0.0480,0.0266,0.3101,1.2420,-9.7268,1.8535,7.0950,172.6645,0.0000,0.0000,0.0000,0.0000,0.0000,หนึ่ง
375283,-0.2101,0.0883,0.0228,0.3238,1.2462,-9.7364,1.8571,7.1146,172.6446,0.0000,0.0000,0.0000,0.0000,0.0000,หนึ่ง
375399,-0.2401,0.0777,0.0082,0.3190,1.2205,-9.7352,1.8576,7.1173,172.6418,0.0000,0.0000,0.0000,0.0000,0.0000,หนึ่ง
375515,-0.1633,0.0607,0.0612,0.3238,1.2337,-9.7459,1.8607,7.1267,172.6320,0.0000,0.0000,0.0000,0.0000,0.0000,หนึ่ง
375631,-0.1761,0.0551,0.0196,0.3017,1.2049,-9.6993,1.8514,7.1218,172.6391,0.0000,0.0000,0.0000,0.0000,0.0000,หนึ่ง
375747,-0.1866,0.0765,0.0271,0.2909,1.2319,-9.6951,1.8368,7.1334,172.6315,0.0000,0.0000,0.0000,0.0000,0.0000,หนึ่ง
375863,-0.1975,0.0751,-0.0198,0.3352,1.2055,-9.7807,1.8480,7.1223,172.6395,0.0000,0.0000,0.0000,0.0000,0.0000,หนึ่ง
375979,-0.2233,0.0836,0.0451,0.3137,1.2552,-9.6975,1.8469,7.1471,172.6157,0.0000,0.0000,0.0000,0.0000,0.0000,หนึ่ง
376095,-0.1885,0.0394,0.1087,0.2735,1.2319,-9.7286,1.8220,7.1538,172.6155,0.0000,0.0000,0.0000,0.0000,0.0000,หนึ่ง
376211,-0.2056,0.0714,0.0222,0.3041,1.1666,-9.7495,1.8172,7.1204,172.6491,0.0000,0.0000,0.0000,0.0000,0.0000,หนึ่ง
376327,-0.2039,0.0658,0.0109,0.3262,1.2073,-9.7436,1.8258,7.1143,172.6528,0.0000,0.0000,0.0000,0.0000,0.0000,หนึ่ง
376443,-0.2078,0.0729,-0.0204,0.2981,1.2325,-9.7028,1.8178,7.1264,172.6431,0.0000,0.0000,0.0000,0.0000,0.0000,หนึ่ง
376559,-0.1849,0.0664,-0.0378,0.3041,1.2390,-9.7555,1.8131,7.1373,172.6337,0.0000,0.0000,0.0000,0.0000,0.0000,หนึ่ง
376675,-0.2147,0.0763,0.0345,0.2729,1.2007,-9.7364,1.7911,7.1263,172.6498,0.0000,0.0000,0.0000,0.0000,0.0000,หนึ่ง
376791,-0.1944,0.0833,-0.0293,0.2915,1.2115,-9.7681,1.7816,7.1204,172.6579,0.0000,0.0000,0.0000,0.0000,0.0000,หนึ่ง
376907,-0.1914,0.0720,0.0350,0.4549,1.2181,-9.7286,1.8691,7.1213,172.6350,0.0000,0.0000,0.0000,0.0000,0.0000,หนึ่ง
377023,-0.1775,0.0748,-0.0027,0.4483,1.2295,-9.7310,1.9440,7.1286,172.6085,0.0000,0.0000,0.0000,0.0000,0.0000,หนึ่ง
377139,-0.2202,0.0705,-0.0063,0.3346,1.2809,-9.7160,1.9451,7.1663,172.5717,0.0000,0.0000,0.0000,0.0000,0.0000,หนึ่ง
377255,-0.2014,0.0772,0.0176,0.2562,1.2199,-9.7280,1.9003,7.1642,172.5855,0.0000,0.0000,0.0000,0.0000,0.0000,หนึ่ง
377371,-0.2120,0.0733,-0.0763,0.3286,1.3731,-9.7034,1.9024,7.2527,172.4993,0.0000,0.0000,0.0000,0.0000,0.0000,หนึ่ง
377487,-0.2288,0.0740,0.0464,0.3226,1.0984,-9.6957,1.9015,7.1738,172.5759,0.0000,0.0000,0.0000,0.0000,0.0000,หนึ่ง
377603,-0.2447,0.0943,-0.0274,0.2478,1.2384,-9.7729,1.8553,7.1784,172.5833,0.0000,0.0000,0.0000,0.0000,0.0000,หนึ่ง
377719,-0.1955,0.0399,-0.0187,0.1610,1.1259,-9.7453,1.7638,7.1196,172.6630,0.0000,0.0000,0.0000,0.0000,0.0000,หนึ่ง
377835,-0.1782,0.0166,-0.0766,0.2700,1.1403,-9.7573,1.7448,7.0739,172.7120,0.0000,0.0000,0.0000,0.0000,0.0000,หนึ่ง
377951,-0.1363,0.0652,-0.0802,0.2813,1.2079,-9.7394,1.7345,7.0732,172.7151,0.0000,0.0000,0.0000,0.0000,0.0000,หนึ่ง
378067,-0.1685,0.1020,0.0083,0.3101,1.2678,-9.7262,1.7421,7.1081,172.6793,0.0000,0.0000,0.0000,0.0000,0.0000,หนึ่ง
378183,-0.1745,0.0912,-0.0603,0.2897,1.2857,-9.7465,1.7367,7.1486,172.6414,0.0000,0.0000,0.0000,0.0000,0.0000,หนึ่ง
378299,-0.2292,0.0708,0.0011,0.4184,1.2067,-9.7651,1.8067,7.1376,172.6350,0.0000,0.0000,0.0000,0.0000,0.0000,หนึ่ง
378415,-0.2188,0.0717,0.0000,0.2718,1.2450,-9.7166,1.7850,7.1537,172.6247,0.0000,0.0000,0.0000,0.0000,0.0000,หนึ่ง
378531,-0.2288,0.0706,-0.0042,0.2257,1.2133,-9.7262,1.7384,7.1492,172.6403,0.0000,0.0000,0.0000,0.0000,0.0000,หนึ่ง
378647,-0.1794,0.0754,-0.0262,0.3526,1.1953,-9.7292,1.7706,7.1343,172.6471,0.0000,0.0000,0.0000,0.0000,0.0000,หนึ่ง
378763,-0.1982,0.0382,0.1444,0.3567,1.2217,-9.7250,1.8019,7.1364,172.6373,0.0000,0.0000,0.0000,0.0000,0.0000,หนึ่ง
378879,-0.1737,0.0971,-0.0060,0.2233,1.2929,-9.7005,1.7526,7.1817,172.6054,0.0000,0.0000,0.0000,0.0000,0.0000,หนึ่ง
378995,-0.1340,0.0474,-0.0363,0.3143,0.9811,-9.7310,1.7614,7.0393,172.7415,0.0000,0.0000,0.0000,0.0000,0.0000,หนึ่ง
379111,-0.1772,0.0822,-0.0022,0.1179,1.4767,-9.6909,1.6543,7.2017,172.6088,0.0000,0.0000,0.0000,0.0000,0.0000,หนึ่ง
379227,-0.1958,0.1129,0.0917,0.2478,1.1756,-9.7322,1.6336,7.1701,172.6443,0.0000,0.0000,0.0000,0.0000,0.0000,หนึ่ง
379343,-0.2198,0.1048,0.0341,0.4699,1.4180,-9.7124,1.7446,7.2831,172.5087,0.0000,0.0000,0.0000,0.0000,0.0000,หนึ่ง
379459,-0.3140,0.0982,0.0327,0.2777,1.3163,-9.7244,1.7322,7.3253,172.4704,0.0000,0.0000,0.0000,0.0000,0.0000,หนึ่ง
379575,-0.2416,0.0778,-0.0315,0.2598,1.1080,-9.7477,1.7107,7.2410,172.5575,0.0000,0.0000,0.0000,0.0000,0.0000,หนึ่ง
379691,-0.1810,0.0457,-0.0249,0.3831,1.1337,-9.7597,1.7630,7.1789,172.6056,0.0000,0.0000,0.0000,0.0000,0.0000,หนึ่ง
379807,-0.1778,0.0622,-0.0158,0.2993,1.2612,-9.7118,1.7618,7.2005,172.5849,0.0000,0.0000,0.0000,0.0000,0.0000,หนึ่ง
379923,-0.1760,0.0792,0.0100,0.2897,1.2702,-9.6885,1.7554,7.2270,172.5607,0.0000,0.0000,0.0000,0.0000,0.0000,หนึ่ง
380039,-0.2120,0.0777,0.0453,0.3603,1.2372,-9.6951,1.7910,7.2310,172.5482,0.0000,0.0000,0.0000,0.0000,0.0000,หนึ่ง
380155,-0.2318,0.0534,0.0289,0.2682,1.2259,-9.7501,1.7681,7.2243,172.5603,0.0000,0.0000,0.0000,0.0000,0.0000,หนึ่ง
380271,-0.2065,0.0649,0.0180,0.1538,1.2534,-9.7214,1.6813,7.2365,172.5687,0.0000,0.0000,0.0000,0.0000,0.0000,หนึ่ง
380387,-0.1969,0.0616,0.0166,0.3184,1.2289,-9.7453,1.6988,7.2312,172.5699,0.0000,0.0000,0.0000,0.0000,0.0000,หนึ่ง
380503,-0.2289,0.1012,-0.0382,0.4316,1.4013,-9.6921,1.7813,7.3299,172.4545,0.0000,0.0000,0.0000,0.0000,0.0000,หนึ่ง
380619,-0.2493,0.1039,0.0504,0.3089,1.2803,-9.7465,1.7831,7.3450,172.4394,0.0000,0.0000,0.0000,0.0000,0.0000,หนึ่ง
380735,-0.2159,0.1007,0.0056,0.3125,1.3408,-9.7418,1.7868,7.3939,172.3910,0.0000,0.0000,0.0000,0.0000,0.0000,หนึ่ง
380851,-0.1755,0.0637,-0.0139,0.3125,1.2624,-9.7178,1.7907,7.3942,172.3896,0.0000,0.0000,0.0000,0.0000,0.0000,หนึ่ง
380967,-0.2068,0.0894,0.0315,0.3232,1.2732,-9.7190,1.8005,7.4007,172.3810,0.0000,0.0000,0.0000,0.0000,0.0000,หนึ่ง
381083,-0.2222,0.0634,0.0003,0.3765,1.3612,-9.7082,1.8404,7.4582,172.3156,0.0000,0.0000,0.0000,0.0000,0.0000,หนึ่ง
381199,-0.2468,0.0678,0.0207,0.3214,1.2001,-9.7226,1.8443,7.4157,172.3559,0.0000,0.0000,0.0000,0.0000,0.0000,หนึ่ง
381315,-0.1622,0.0687,-0.0076,0.2789,1.2247,-9.7519,1.8224,7.3896,172.3866,0.0000,0.0000,0.0000,0.0000,0.0000,หนึ่ง
381431,-0.1843,0.0718,0.0395,0.3448,1.2349,-9.7106,1.8419,7.3749,172.3961,0.0000,0.0000,0.0000,0.0000,0.0000,หนึ่ง
381547,-0.2038,0.0553,0.0157,0.3298,1.1858,-9.7005,1.8509,7.3341,172.4335,0.0000,0.0000,0.0000,0.0000,0.0000,หนึ่ง
381663,-0.2298,0.0628,0.0678,0.3202,1.2648,-9.7424,1.8525,7.3400,172.4274,0.0000,0.0000,0.0000,0.0000,0.0000,หนึ่ง
381779,-0.2090,0.0872,0.0529,0.3184,1.2337,-9.6831,1.8541,7.3317,172.4350,0.0000,0.0000,0.0000,0.0000,0.0000,หนึ่ง
381895,-0.1952,0.0765,-0.0249,0.3148,1.1989,-9.7292,1.8527,7.3007,172.4654,0.0000,0.0000,0.0000,0.0000,0.0000,หนึ่ง
382011,-0.1843,0.0807,0.0795,0.2831,1.2187,-9.7471,1.8325,7.2829,172.4876,0.0000,0.0000,0.0000,0.0000,0.0000,หนึ่ง
382127,-0.1907,0.0461,-0.0338,0.3430,1.2199,-9.7376,1.8494,7.2683,172.4977,0.0000,0.0000,0.0000,0.0000,0.0000,หนึ่ง
382243,-0.2282,0.0777,-0.0368,0.3274,1.2785,-9.7274,1.8556,7.2898,172.4752,0.0000,0.0000,0.0000,0.0000,0.0000,หนึ่ง
382359,-0.2248,0.0507,0.0616,0.3184,1.2696,-9.7184,1.8561,7.3047,172.4606,0.0000,0.0000,0.0000,0.0000,0.0000,หนึ่ง
382475,-0.1994,0.0769,0.0404,0.3220,1.2744,-9.7376,1.8583,7.3195,172.4458,0.0000,0.0000,0.0000,0.0000,0.0000,หนึ่ง
382591,-0.2094,0.0950,-0.0140,0.3424,1.2133,-9.7388,1.8723,7.2972,172.4639,0.0000,0.0000,0.0000,0.0000,0.0000,หนึ่ง
382707,-0.1808,0.0908,-0.0319,0.3178,1.2319,-9.7495,1.8703,7.2872,172.4740,0.0000,0.0000,0.0000,0.0000,0.0000,หนึ่ง
382823,-0.2293,0.0943,-0.0762,0.2951,1.2157,-9.7358,1.8556,7.2699,172.4945,0.0000,0.0000,0.0000,0.0000,0.0000,หนึ่ง
382939,-0.2382,0.0748,0.0566,0.3196,1.1906,-9.7471,1.8565,7.2389,172.5243,0.0000,0.0000,0.0000,0.0000,0.0000,หนึ่ง
383055,-0.1707,0.0686,0.0468,0.2909,1.2037,-9.7424,1.8406,7.2191,172.5476,0.0000,0.0000,0.0000,0.0000,0.0000,หนึ่ง
383171,-0.2108,0.0847,-0.0230,0.3196,1.2145,-9.7226,1.8433,7.2088,172.5568,0.0000,0.0000,0.0000,0.0000,0.0000,หนึ่ง
383287,-0.1992,0.0691,-0.0304,0.3017,1.2301,-9.7100,1.8356,7.2096,172.5580,0.0000,0.0000,0.0000,0.0000,0.0000,หนึ่ง
383403,-0.1914,0.0813,0.0233,0.2813,1.2558,-9.7340,1.8162,7.2234,172.5494,0.0000,0.0000,0.0000,0.0000,0.0000,หนึ่ง
383519,-0.2108,0.0717,-0.0130,0.2915,1.2253,-9.6963,1.8054,7.2210,172.5544,0.0000,0.0000,0.0000,0.0000,0.0000,หนึ่ง
383635,-0.2173,0.0457,-0.0345,0.2837,1.2366,-9.7154,1.7909,7.2240,172.5550,0.0000,0.0000,0.0000,0.0000,0.0000,หนึ่ง
383751,-0.2113,0.0716,0.0001,0.2502,1.2881,-9.7256,1.7578,7.2558,172.5320,0.0000,0.0000,0.0000,0.0000,0.0000,หนึ่ง
383867,-0.2574,0.0798,0.0301,0.2472,1.3216,-9.7430,1.7260,7.3026,172.4940,0.0000,0.0000,0.0000,0.0000,0.0000,หนึ่ง
383983,-0.2702,0.0368,0.0544,0.1143,1.0804,-9.8064,1.6193,7.2007,172.6176,0.0000,0.0000,0.0000,0.0000,0.0000,หนึ่ง
384099,-0.1261,0.0739,0.0428,0.3029,1.0696,-9.7112,1.6349,7.1092,172.7033,0.0000,0.0000,0.0000,0.0000,0.0000,หนึ่ง
384215,-0.1033,0.0556,-0.0453,0.3202,1.2540,-9.7017,1.6589,7.1343,172.6734,0.0000,0.0000,0.0000,0.0000,0.0000,หนึ่ง
384331,-0.2282,0.0781,-0.0172,0.3250,1.3306,-9.7178,1.6828,7.2002,172.6037,0.0000,0.0000,0.0000,0.0000,0.0000,หนึ่ง
384447,-0.2294,0.0744,0.0046,0.3364,1.2660,-9.7418,1.7107,7.2202,172.5778,0.0000,0.0000,0.0000,0.0000,0.0000,หนึ่ง
384563,-0.2390,0.0871,0.0423,0.3047,1.3683,-9.7531,1.7168,7.2967,172.5019,0.0000,0.0000,0.0000,0.0000,0.0000,หนึ่ง
384679,-0.1896,0.0860,-0.0543,0.2735,1.2031,-9.7513,1.7046,7.2701,172.5306,0.0000,0.0000,0.0000,0.0000,0.0000,หนึ่ง
384795,-0.1900,0.0406,0.0712,0.3226,1.2001,-9.7394,1.7225,7.2452,172.5507,0.0000,0.0000,0.0000,0.0000,0.0000,หนึ่ง
384911,-0.1930,0.0549,0.0292,0.3083,1.2540,-9.7028,1.7307,7.2567,172.5376,0.0000,0.0000,0.0000,0.0000,0.0000,หนึ่ง
385027,-0.2241,0.0769,-0.0442,0.3023,1.3019,-9.7118,1.7343,7.2941,172.5003,0.0000,0.0000,0.0000,0.0000,0.0000,หนึ่ง
385143,-0.2472,0.0746,-0.0788,0.2915,1.2498,-9.7262,1.7311,7.2966,172.4986,0.0000,0.0000,0.0000,0.0000,0.0000,หนึ่ง
385259,-0.2469,0.0841,-0.0545,0.2694,1.1756,-9.7382,1.7153,7.2551,172.5428,0.0000,0.0000,0.0000,0.0000,0.0000,หนึ่ง
385375,-0.1971,0.0669,0.0278,0.3113,1.1894,-9.7184,1.7259,7.2270,172.5677,0.0000,0.0000,0.0000,0.0000,0.0000,หนึ่ง
385491,-0.1948,0.1007,0.0665,0.3071,1.2378,-9.7250,1.7327,7.2293,172.5638,0.0000,0.0000,0.0000,0.0000,0.0000,หนึ่ง
385607,-0.1971,0.0579,0.0004,0.2999,1.2067,-9.7178,1.7348,7.2139,172.5782,0.0000,0.0000,0.0000,0.0000,0.0000,หนึ่ง
385723,-0.1924,0.0633,0.0014,0.2897,1.2205,-9.7100,1.7309,7.2086,172.5843,0.0000,0.0000,0.0000,0.0000,0.0000,หนึ่ง
385839,-0.2247,0.0695,-0.0170,0.2855,1.2588,-9.7304,1.7245,7.2246,172.5703,0.0000,0.0000,0.0000,0.0000,0.0000,หนึ่ง
385955,-0.2259,0.0770,-0.0282,0.3418,1.2259,-9.7615,1.7511,7.2175,172.5709,0.0000,0.0000,0.0000,0.0000,0.0000,หนึ่ง
386071,-0.2643,0.1037,0.0469,0.3562,1.3564,-9.6705,1.7848,7.2933,172.4892,0.0000,0.0000,0.0000,0.0000,0.0000,nothing
386187,-0.1918,0.0450,0.0494,0.2789,1.0110,-9.6855,1.7705,7.1605,172.6217,0.0000,0.0000,0.0000,0.0000,0.0000,nothing
386303,-0.1020,0.0341,-0.0307,0.3789,1.2181,-9.7813,1.8138,7.1538,172.6176,0.0000,0.0000,0.0000,0.0000,0.0000,nothing
386419,-0.2129,0.0369,-0.0743,0.3394,1.3330,-9.6915,1.8311,7.2210,172.5481,0.0000,0.0000,0.0000,0.0000,0.0000,nothing
386535,-0.2862,0.0954,-0.0397,0.3047,1.2989,-9.7005,1.8263,7.2611,172.5103,0.0000,0.0000,0.0000,0.0000,0.0000,nothing
386651,-0.2405,0.0892,-0.0207,0.2939,1.1552,-9.7388,1.8153,7.2111,172.5615,0.0000,0.0000,0.0000,0.0000,0.0000,nothing
386767,-0.2101,0.0461,0.0997,0.2957,1.1989,-9.7256,1.8066,7.1925,172.5818,0.0000,0.0000,0.0000,0.0000,0.0000,nothing
386883,-0.1596,0.0833,0.0127,0.3418,1.2073,-9.6771,1.8266,7.1840,172.5850,0.0000,0.0000,0.0000,0.0000,0.0000,nothing
386999,-0.2093,0.0138,-0.0089,0.1880,1.2229,-9.7376,1.7536,7.1813,172.6055,0.0000,0.0000,0.0000,0.0000,0.0000,nothing
387115,-0.1789,0.0825,0.0153,0.2724,1.1636,-9.7274,1.7375,7.1451,172.6446,0.0000,0.0000,0.0000,0.0000,0.0000,nothing
387231,-0.1467,0.0806,0.0612,0.2706,1.2456,-9.7058,1.7221,7.1616,172.6322,0.0000,0.0000,0.0000,0.0000,0.0000,nothing
387347,-0.1816,0.0759,-0.0157,0.3035,1.2420,-9.7154,1.7274,7.1736,172.6192,0.0000,0.0000,0.0000,0.0000,0.0000,nothing
387463,-0.2097,0.1001,-0.0887,0.3166,1.2396,-9.7220,1.7397,7.1825,172.6076,0.0000,0.0000,0.0000,0.0000,0.0000,nothing
387579,-0.2209,0.0454,0.0200,0.4423,1.2217,-9.7304,1.8241,7.1792,172.5903,0.0000,0.0000,0.0000,0.0000,0.0000,nothing
387695,-0.1907,0.0927,-0.0057,0.3017,1.2229,-9.7286,1.8179,7.1774,172.5936,0.0000,0.0000,0.0000,0.0000,0.0000,nothing
387811,-0.2106,0.0706,0.0635,0.2951,1.2289,-9.7058,1.8089,7.1809,172.5924,0.0000,0.0000,0.0000,0.0000,0.0000,nothing
387927,-0.1700,0.0682,-0.0926,0.3029,1.2678,-9.7459,1.8045,7.2037,172.5714,0.0000,0.0000,0.0000,0.0000,0.0000,nothing
388043,-0.2180,0.0932,-0.0031,0.2897,1.2660,-9.7208,1.7933,7.2250,172.5534,0.0000,0.0000,0.0000,0.0000,0.0000,nothing
388159,-0.2298,0.0973,0.0267,0.2753,1.2199,-9.7214,1.7750,7.2175,172.5652,0.0000,0.0000,0.0000,0.0000,0.0000,nothing
388275,-0.1640,0.0753,0.0052,0.3358,1.2145,-9.7819,1.7927,7.2030,172.5750,0.0000,0.0000,0.0000,0.0000,0.0000,nothing
388391,-0.1954,0.0574,0.0262,0.2771,1.2738,-9.7160,1.7754,7.2293,172.5536,0.0000,0.0000,0.0000,0.0000,0.0000,nothing
388507,-0.2529,0.0967,-0.0082,0.3154,1.2492,-9.7328,1.7820,7.2374,172.5442,0.0000,0.0000,0.0000,0.0000,0.0000,nothing
388623,-0.2288,0.0728,0.0318,0.3789,1.2181,-9.7154,1.8254,7.2278,172.5429,0.0000,0.0000,0.0000,0.0000,0.0000,nothing
388739,-0.0230,0.0072,-0.1317,0.5004,1.4150,-9.7926,1.9334,7.3271,172.4194,0.0000,0.0000,0.0000,0.0000,0.0000,สาม
388855,-0.4800,0.1490,0.0214,0.2694,1.2301,-9.7322,1.8973,7.3145,172.4408,0.0000,0.0000,0.0000,0.0000,0.0000,สาม
388971,-0.0868,0.0187,-0.0263,0.3753,0.8871,-9.7699,1.9268,7.1016,172.6391,0.0000,0.0000,0.0000,0.0000,0.0000,สาม
389087,-0.0384,0.0256,-0.0018,0.3011,1.2881,-9.7064,1.9103,7.1469,172.5996,0.0000,0.0000,0.0000,0.0000,0.0000,สาม
389203,-0.2327,0.0571,-0.0511,0.3741,1.3312,-9.6777,1.9385,7.2146,172.5268,0.0000,0.0000,0.0000,0.0000,0.0000,สาม
389319,-0.2254,0.0875,-0.0132,0.3214,1.2349,-9.7286,1.9324,7.2162,172.5269,0.0000,0.0000,0.0000,0.0000,0.0000,สาม
389435,-0.2304,0.0798,0.0333,0.2933,1.1959,-9.7256,1.9106,7.1953,172.5528,0.0000,0.0000,0.0000,0.0000,0.0000,สาม
389551,-0.2270,0.1069,0.0837,0.2897,1.2247,-9.7573,1.8882,7.1908,172.5629,0.0000,0.0000,0.0000,0.0000,0.0000,สาม
389667,-0.2020,0.0862,-0.0258,0.2951,1.2019,-9.7286,1.8718,7.1757,172.5816,0.0000,0.0000,0.0000,0.0000,0.0000,สาม
389783,-0.1954,0.0593,-0.0874,0.2724,1.2361,-9.7136,1.8440,7.1831,172.5816,0.0000,0.0000,0.0000,0.0000,0.0000,สาม
389899,-0.1824,0.0693,-0.0607,0.3220,1.2181,-9.7424,1.8475,7.1771,172.5865,0.0000,0.0000,0.0000,0.0000,0.0000,สาม
390015,-0.2039,0.0874,0.0751,0.3148,1.2145,-9.7442,1.8464,7.1694,172.5942,0.0000,0.0000,0.0000,0.0000,0.0000,สาม
390131,-0.2084,0.0747,0.0499,0.3077,1.2007,-9.7178,1.8417,7.1565,172.6079,0.0000,0.0000,0.0000,0.0000,0.0000,สาม
390247,-0.2221,0.0562,0.0187,0.2909,1.2253,-9.7172,1.8277,7.1592,172.6088,0.0000,0.0000,0.0000,0.0000,0.0000,สาม
390363,-0.2140,0.0663,0.0750,0.3388,1.2486,-9.7370,1.8426,7.1736,172.5911,0.0000,0.0000,0.0000,0.0000,0.0000,สาม
390479,-0.2094,0.0808,-0.0087,0.2975,1.2013,-9.7489,1.8318,7.1584,172.6085,0.0000,0.0000,0.0000,0.0000,0.0000,สาม
390595,-0.2172,0.0723,0.0442,0.3047,1.2378,-9.7525,1.8261,7.1656,172.6030,0.0000,0.0000,0.0000,0.0000,0.0000,สาม
390711,-0.2037,0.0838,-0.1389,0.3083,1.2319,-9.7298,1.8235,7.1703,172.5991,0.0000,0.0000,0.0000,0.0000,0.0000,สาม
390827,-0.1948,0.0645,-0.0720,0.2831,1.2295,-9.7298,1.8066,7.1731,172.6006,0.0000,0.0000,0.0000,0.0000,0.0000,สาม
390943,-0.2109,0.0712,-0.1126,0.3053,1.2301,-9.7364,1.8041,7.1755,172.5989,0.0000,0.0000,0.0000,0.0000,0.0000,สาม
391059,-0.2071,0.0596,0.0292,0.2987,1.2624,-9.7370,1.7979,7.1963,172.5802,0.0000,0.0000,0.0000,0.0000,0.0000,สาม
391175,-0.2135,0.0967,0.0097,0.3202,1.2612,-9.6927,1.8057,7.2176,172.5576,0.0000,0.0000,0.0000,0.0000,0.0000,สาม
391291,0.0334,-0.0123,0.0480,0.5812,1.0523,-9.6532,1.9665,7.1179,172.6128,0.0000,0.0000,0.0000,0.0000,0.0000,สาม
391407,-0.3840,0.1641,0.0012,0.4597,1.4198,-9.7789,2.0368,7.2323,172.4834,0.0000,0.0000,0.0000,0.0000,0.0000,สาม
391523,-0.2072,0.0622,-0.1223,0.2849,1.1193,-9.7286,1.9998,7.1652,172.5581,0.0000,0.0000,0.0000,0.0000,0.0000,สาม
391639,-0.1381,0.0499,0.0038,0.3202,1.1295,-9.7430,1.9868,7.1096,172.6152,0.0000,0.0000,0.0000,0.0000,0.0000,สาม
391755,-0.1842,0.0209,0.0751,0.2993,1.1876,-9.7382,1.9629,7.0936,172.6371,0.0000,0.0000,0.0000,0.0000,0.0000,สาม
391871,-0.1647,0.0514,-0.0179,0.2215,1.0918,-9.7663,1.8956,7.0219,172.7243,0.0000,0.0000,0.0000,0.0000,0.0000,สาม
391987,-0.0736,-0.0484,0.1059,0.3178,1.1672,-9.7376,1.8917,7.0029,172.7437,0.0000,0.0000,0.0000,0.0000,0.0000,สาม
392103,-0.2829,0.0432,0.0420,0.2855,1.2815,-9.8010,1.8678,7.0475,172.7067,0.0000,0.0000,0.0000,0.0000,0.0000,สาม
392219,-0.2615,0.1209,-0.0008,0.2131,1.3983,-9.6598,1.8064,7.1656,172.6079,0.0000,0.0000,0.0000,0.0000,0.0000,สาม
392335,-0.2810,0.0976,-0.0101,0.1101,1.2372,-9.8423,1.6883,7.1656,172.6361,0.0000,0.0000,0.0000,0.0000,0.0000,สาม
392451,-0.2714,0.0699,0.0076,0.2993,1.1451,-9.6885,1.6951,7.1231,172.6760,0.0000,0.0000,0.0000,0.0000,0.0000,สาม
392567,-0.0758,0.1081,-0.0183,0.2299,1.1277,-9.6741,1.6611,7.0758,172.7299,0.0000,0.0000,0.0000,0.0000,0.0000,สาม
392683,-0.1421,0.1063,-0.0011,0.3729,1.4204,-9.6819,1.7131,7.2020,172.5949,0.0000,0.0000,0.0000,0.0000,0.0000,สาม
392799,-0.2278,0.1122,0.0713,0.3370,1.2223,-9.7202,1.7388,7.1981,172.5927,0.0000,0.0000,0.0000,0.0000,0.0000,สาม
392915,-0.2292,0.0826,-0.0040,0.4112,1.1175,-9.7669,1.8047,7.1303,172.6425,0.0000,0.0000,0.0000,0.0000,0.0000,สาม
393031,-0.1686,0.0424,-0.0549,0.2813,1.2145,-9.6705,1.7896,7.1328,172.6438,0.0000,0.0000,0.0000,0.0000,0.0000,สาม
393147,-0.0853,0.0304,0.0056,0.3933,1.1744,-9.7418,1.8402,7.1064,172.6568,0.0000,0.0000,0.0000,0.0000,0.0000,สาม
393263,-0.0947,0.0515,-0.0954,0.3915,1.2971,-9.6729,1.8858,7.1587,172.5946,0.0000,0.0000,0.0000,0.0000,0.0000,สาม
393379,-0.1302,0.0397,0.1392,0.6052,1.3372,-9.6161,2.0527,7.2327,172.4786,0.0000,0.0000,0.0000,0.0000,0.0000,สาม
393495,-0.3546,0.1286,0.0247,0.2532,1.1660,-9.7394,1.9952,7.1919,172.5336,0.0000,0.0000,0.0000,0.0000,0.0000,สาม
393611,-0.0378,0.0079,0.0432,0.4052,0.9769,-9.7442,2.0327,7.0447,172.6651,0.0000,0.0000,0.0000,0.0000,0.0000,สาม
393727,-0.1693,0.0282,0.0260,0.3059,1.3755,-9.7172,2.0079,7.1457,172.5747,0.0000,0.0000,0.0000,0.0000,0.0000,สาม
393843,-0.2463,0.0881,0.0234,0.3352,1.3127,-9.7088,2.0031,7.2007,172.5230,0.0000,0.0000,0.0000,0.0000,0.0000,สาม
393959,-0.2553,0.0897,0.1374,0.2867,1.2175,-9.7292,1.9703,7.1936,172.5387,0.0000,0.0000,0.0000,0.0000,0.0000,สาม
394075,-0.2053,0.0897,-0.0115,0.3065,1.2654,-9.7328,1.9520,7.2147,172.5232,0.0000,0.0000,0.0000,0.0000,0.0000,สาม
394191,-0.2164,0.0902,0.0431,0.3370,1.2145,-9.7418,1.9535,7.2034,172.5337,0.0000,0.0000,0.0000,0.0000,0.0000,สาม
394307,-0.2110,0.0548,0.0056,0.3202,1.2121,-9.7459,1.9448,7.1916,172.5473,0.0000,0.0000,0.0000,0.0000,0.0000,สาม
394423,-0.1989,0.0851,0.0802,0.2640,1.1852,-9.7190,1.9048,7.1675,172.5811,0.0000,0.0000,0.0000,0.0000,0.0000,สาม
394539,-0.2176,0.0969,-0.1130,0.3430,1.2289,-9.7256,1.9147,7.1705,172.5757,0.0000,0.0000,0.0000,0.0000,0.0000,สาม
394655,-0.1888,0.0699,-0.0359,0.3244,1.2337,-9.7070,1.9132,7.1773,172.5695,0.0000,0.0000,0.0000,0.0000,0.0000,สาม
394771,-0.1854,0.0942,-0.0472,0.4394,1.2366,-9.7406,1.9782,7.1824,172.5473,0.0000,0.0000,0.0000,0.0000,0.0000,สาม
394887,-0.1999,0.0630,0.0451,0.3645,1.2235,-9.7418,1.9930,7.1795,172.5462,0.0000,0.0000,0.0000,0.0000,0.0000,สาม
395003,-0.2382,0.0653,-0.0211,0.2957,1.1942,-9.7268,1.9666,7.1612,172.5710,0.0000,0.0000,0.0000,0.0000,0.0000,สาม
395119,-0.2240,0.0635,0.0033,0.3065,1.1959,-9.7124,1.9493,7.1467,172.5895,0.0000,0.0000,0.0000,0.0000,0.0000,สาม
395235,-0.2034,0.0638,-0.0360,0.2724,1.2001,-9.7316,1.9135,7.1348,172.6104,0.0000,0.0000,0.0000,0.0000,0.0000,สาม
395351,-0.1985,0.0723,-0.0409,0.3011,1.2115,-9.7346,1.8979,7.1304,172.6188,0.0000,0.0000,0.0000,0.0000,0.0000,สาม
395467,-0.1801,0.0766,0.0421,0.2837,1.2205,-9.7184,1.8741,7.1329,172.6225,0.0000,0.0000,0.0000,0.0000,0.0000,สาม
395583,-0.1575,0.0618,0.0174,0.3250,1.2151,-9.7028,1.8770,7.1330,172.6217,0.0000,0.0000,0.0000,0.0000,0.0000,สาม
395699,-0.2275,0.0691,-0.0050,0.3603,1.2444,-9.7124,1.9001,7.1494,172.5999,0.0000,0.0000,0.0000,0.0000,0.0000,สาม
395815,-0.2112,0.0898,-0.0025,0.2664,1.2648,-9.6951,1.8662,7.1774,172.5815,0.0000,0.0000,0.0000,0.0000,0.0000,สาม
395931,-0.2105,0.0792,0.0968,0.3137,1.2217,-9.7298,1.8628,7.1749,172.5848,0.0000,0.0000,0.0000,0.0000,0.0000,สาม
396047,-0.2243,0.0807,-0.0867,0.3621,1.2528,-9.7052,1.8884,7.1925,172.5612,0.0000,0.0000,0.0000,0.0000,0.0000,สาม
396163,-0.2020,0.0870,0.0579,0.2813,1.2468,-9.7436,1.8636,7.2022,172.5582,0.0000,0.0000,0.0000,0.0000,0.0000,สาม
396279,-0.1997,0.0965,-0.0001,0.3220,1.2217,-9.7160,1.8655,7.1982,172.5615,0.0000,0.0000,0.0000,0.0000,0.0000,สาม
396395,-0.2060,0.0748,0.0294,0.3095,1.1936,-9.7172,1.8600,7.1783,172.5822,0.0000,0.0000,0.0000,0.0000,0.0000,สาม
396511,-0.2046,0.0504,-0.0071,0.3029,1.2702,-9.7226,1.8510,7.2044,172.5591,0.0000,0.0000,0.0000,0.0000,0.0000,สาม
396627,-0.2154,0.0860,-0.0260,0.3113,1.2762,-9.7160,1.8478,7.2319,172.5333,0.0000,0.0000,0.0000,0.0000,0.0000,สาม
396743,-0.2331,0.0819,-0.0319,0.3029,1.2444,-9.7495,1.8395,7.2358,172.5316,0.0000,0.0000,0.0000,0.0000,0.0000,สาม
396859,-0.2515,0.0778,0.0717,0.2712,1.2121,-9.7447,1.8137,7.2209,172.5524,0.0000,0.0000,0.0000,0.0000,0.0000,สาม
396975,-0.2268,0.0952,-0.0029,0.2915,1.1798,-9.7304,1.8027,7.1899,172.5853,0.0000,0.0000,0.0000,0.0000,0.0000,สาม
397091,-0.1940,0.0791,0.0548,0.2664,1.1846,-9.7166,1.7783,7.1657,172.6147,0.0000,0.0000,0.0000,0.0000,0.0000,สาม
397207,-0.1685,0.0751,-0.0072,0.3035,1.2552,-9.7507,1.7773,7.1824,172.5987,0.0000,0.0000,0.0000,0.0000,0.0000,สาม
397323,-0.2211,0.0821,-0.0166,0.2921,1.2271,-9.7304,1.7701,7.1826,172.6003,0.0000,0.0000,0.0000,0.0000,0.0000,สาม
397439,-0.2240,0.0739,-0.0335,0.3226,1.2211,-9.7154,1.7818,7.1803,172.5997,0.0000,0.0000,0.0000,0.0000,0.0000,สาม
397555,-0.2019,0.0630,0.0121,0.2807,1.2241,-9.6957,1.7682,7.1815,172.6018,0.0000,0.0000,0.0000,0.0000,0.0000,สาม
397671,-0.1520,0.0679,0.0293,0.2945,1.1906,-9.7352,1.7634,7.1603,172.6236,0.0000,0.0000,0.0000,0.0000,0.0000,สาม
397787,-0.2079,0.0723,-0.0601,0.3202,1.2396,-9.6891,1.7748,7.1729,172.6085,0.0000,0.0000,0.0000,0.0000,0.0000,สาม
397903,-0.2339,0.0575,-0.0419,0.2849,1.2552,-9.7148,1.7639,7.1915,172.5931,0.0000,0.0000,0.0000,0.0000,0.0000,สาม
398019,-0.2292,0.0723,0.0808,0.2855,1.2552,-9.7543,1.7538,7.2054,172.5821,0.0000,0.0000,0.0000,0.0000,0.0000,สาม
398135,-0.2146,0.0558,-0.0249,0.2909,1.2091,-9.7471,1.7481,7.1916,172.5968,0.0000,0.0000,0.0000,0.0000,0.0000,สาม
398251,-0.1885,0.0623,0.0052,0.1610,1.1888,-9.7118,1.6677,7.1703,172.6363,0.0000,0.0000,0.0000,0.0000,0.0000,สาม
398367,-0.1809,0.0724,0.0234,0.3071,1.1852,-9.7322,1.6803,7.1473,172.6559,0.0000,0.0000,0.0000,0.0000,0.0000,สาม
398483,-0.1770,0.0706,-0.0412,0.2909,1.2462,-9.7112,1.6825,7.1635,172.6396,0.0000,0.0000,0.0000,0.0000,0.0000,สาม
398599,-0.2322,0.0713,0.0290,0.2849,1.2498,-9.7256,1.6807,7.1791,172.6248,0.0000,0.0000,0.0000,0.0000,0.0000,สาม
398715,-0.2041,0.0807,0.0384,0.3065,1.2456,-9.7298,1.6916,7.1904,172.6113,0.0000,0.0000,0.0000,0.0000,0.0000,สาม
398831,-0.2089,0.0631,-0.0083,0.2813,1.2061,-9.7364,1.6867,7.1772,172.6252,0.0000,0.0000,0.0000,0.0000,0.0000,สาม
398947,-0.2128,0.0613,-0.0161,0.2963,1.1864,-9.7765,1.6903,7.1510,172.6499,0.0000,0.0000,0.0000,0.0000,0.0000,สาม
399063,-0.1846,0.0788,0.0579,0.2891,1.1930,-9.6969,1.6908,7.1370,172.6635,0.0000,0.0000,0.0000,0.0000,0.0000,สาม
399179,-0.2005,0.0859,0.0451,0.3083,1.2271,-9.7370,1.7016,7.1412,172.6568,0.0000,0.0000,0.0000,0.0000,0.0000,สาม
399295,-0.2379,0.0894,0.0275,0.3184,1.2708,-9.7028,1.7178,7.1728,172.6223,0.0000,0.0000,0.0000,0.0000,0.0000,สาม
399411,-0.2072,0.0513,0.0744,0.2843,1.2025,-9.7076,1.7126,7.1614,172.6346,0.0000,0.0000,0.0000,0.0000,0.0000,สาม
399527,-0.2113,0.0521,-0.0383,0.2837,1.2259,-9.7316,1.7070,7.1629,172.6344,0.0000,0.0000,0.0000,0.0000,0.0000,สาม
399643,-0.2153,0.0408,0.0004,0.2729,1.2199,-9.7418,1.6955,7.1601,172.6398,0.0000,0.0000,0.0000,0.0000,0.0000,สาม
399759,-0.2236,0.0540,-0.0172,0.3137,1.2349,-9.7028,1.7096,7.1690,172.6279,0.0000,0.0000,0.0000,0.0000,0.0000,สาม
399875,-0.1614,0.0145,-0.0363,0.2502,1.0367,-9.7250,1.6853,7.0606,172.7391,0.0000,0.0000,0.0000,0.0000,0.0000,สาม
399991,-0.2022,0.0886,-0.0140,0.2867,1.2301,-9.6831,1.6850,7.0781,172.7221,0.0000,0.0000,0.0000,0.0000,0.0000,สาม
400107,-0.1817,0.1688,0.0443,0.3107,1.4749,-9.6771,1.6983,7.2364,172.5649,0.0000,0.0000,0.0000,0.0000,0.0000,สาม
400223,-0.1591,0.1205,-0.0147,0.4519,1.3121,-9.7046,1.7928,7.2820,172.4983,0.0000,0.0000,0.0000,0.0000,0.0000,สาม
400339,-0.2308,0.0401,0.0408,0.4447,1.0685,-9.7453,1.8734,7.1787,172.5784,0.0000,0.0000,0.0000,0.0000,0.0000,สาม
400455,-0.2517,0.0729,0.0198,0.2245,1.3169,-9.8250,1.8151,7.2246,172.5485,0.0000,0.0000,0.0000,0.0000,0.0000,สาม
400571,-0.2267,0.1202,0.0033,0.1724,1.3606,-9.6807,1.7349,7.3018,172.4927,0.0000,0.0000,0.0000,0.0000,0.0000,สาม
400687,-0.2188,0.1451,-0.0196,0.3023,1.4324,-9.6592,1.7387,7.4143,172.3823,0.0000,0.0000,0.0000,0.0000,0.0000,สาม
400803,-0.1860,0.1566,0.0100,0.4034,1.2001,-9.6999,1.8011,7.3777,172.4032,0.0000,0.0000,0.0000,0.0000,0.0000,สาม
400919,-0.1884,0.0815,0.0095,0.6135,1.2025,-9.7573,1.9789,7.3413,172.3938,0.0000,0.0000,0.0000,0.0000,0.0000,สาม
401035,-0.2551,0.0334,-0.0288,0.4112,1.2384,-9.8184,2.0193,7.3254,172.3985,0.0000,0.0000,0.0000,0.0000,0.0000,สาม
401151,-0.2290,0.0638,-0.0018,0.3478,1.2953,-9.6993,2.0209,7.3530,172.3714,0.0000,0.0000,0.0000,0.0000,0.0000,สาม
401267,-0.2068,0.1656,0.0160,0.3496,1.3785,-9.6909,2.0234,7.4266,172.2997,0.0000,0.0000,0.0000,0.0000,0.0000,สาม
401383,-0.2039,0.1427,-0.0183,0.4286,1.3486,-9.6723,2.0722,7.4768,172.2382,0.0000,0.0000,0.0000,0.0000,0.0000,สาม
401499,-0.2059,0.0952,-0.0055,0.3370,1.2845,-9.8208,2.0597,7.4738,172.2444,0.0000,0.0000,0.0000,0.0000,0.0000,สาม
401615,-0.2875,0.0128,0.0125,0.3651,1.0643,-9.7819,2.0663,7.3466,172.3652,0.0000,0.0000,0.0000,0.0000,0.0000,สาม
401731,-0.2191,0.0588,-0.0135,0.1604,1.2474,-9.7489,1.9531,7.3411,172.4007,0.0000,0.0000,0.0000,0.0000,0.0000,สาม
401847,-0.2468,0.0969,0.0341,0.1670,1.2630,-9.6400,1.8571,7.3533,172.4133,0.0000,0.0000,0.0000,0.0000,0.0000,สาม
401963,-0.0851,0.0560,-0.0172,0.2466,1.3300,-9.7262,1.8152,7.3965,172.3816,0.0000,0.0000,0.0000,0.0000,0.0000,สาม
402079,-0.3217,0.1087,0.0255,0.3334,1.5593,-9.8052,1.8262,7.5617,172.2184,0.0000,0.0000,0.0000,0.0000,0.0000,สาม
402195,-0.2158,0.1280,0.0284,0.3184,1.1050,-9.7052,1.8303,7.4552,172.3209,0.0000,0.0000,0.0000,0.0000,0.0000,สาม
402311,-0.1633,0.0699,-0.0375,0.2305,1.0176,-9.7447,1.7822,7.3060,172.4775,0.0000,0.0000,0.0000,0.0000,0.0000,สาม
402427,-0.1744,0.0183,0.0406,0.1796,1.3330,-9.6592,1.7099,7.3607,172.4412,0.0000,0.0000,0.0000,0.0000,0.0000,สาม
402543,-0.1321,0.0900,-0.0139,0.5220,1.0894,-9.6681,1.8452,7.2674,172.4996,0.0000,0.0000,0.0000,0.0000,0.0000,สาม
402659,-0.3696,0.1201,0.0369,0.3981,1.3204,-9.7148,1.8932,7.3141,172.4423,0.0000,0.0000,0.0000,0.0000,0.0000,สาม
402775,-0.0630,0.0064,-0.0134,0.5136,1.0409,-9.7316,2.0043,7.1925,172.5306,0.0000,0.0000,0.0000,0.0000,0.0000,สาม
402891,-0.2247,0.1036,0.0417,0.4238,1.3821,-9.7244,2.0510,7.2817,172.4320,0.0000,0.0000,0.0000,0.0000,0.0000,สาม
403007,-0.2172,0.0645,0.0586,0.4100,1.2199,-9.7585,2.0848,7.2654,172.4383,0.0000,0.0000,0.0000,0.0000,0.0000,สาม
403123,-0.2200,0.0686,-0.0296,0.2700,1.1876,-9.7238,2.0342,7.2349,172.4816,0.0000,0.0000,0.0000,0.0000,0.0000,สาม
403239,-0.1310,0.0453,-0.0318,0.3490,1.1846,-9.7088,2.0351,7.2067,172.5085,0.0000,0.0000,0.0000,0.0000,0.0000,สาม
403355,-0.1851,0.0552,0.0067,0.2741,1.2331,-9.6831,1.9927,7.2114,172.5155,0.0000,0.0000,0.0000,0.0000,0.0000,สาม
403471,-0.1805,0.0667,-0.0104,0.3430,1.2839,-9.6915,1.9943,7.2444,172.4832,0.0000,0.0000,0.0000,0.0000,0.0000,สาม
403587,-0.2716,0.0837,0.0281,0.2598,1.3252,-9.7442,1.9461,7.2944,172.4477,0.0000,0.0000,0.0000,0.0000,0.0000,สาม
403703,-0.2233,0.0855,0.0262,0.2394,1.1846,-9.7202,1.8916,7.2596,172.4954,0.0000,0.0000,0.0000,0.0000,0.0000,สาม
403819,-0.2226,0.1044,0.0256,0.2406,1.1720,-9.7609,1.8425,7.2180,172.5481,0.0000,0.0000,0.0000,0.0000,0.0000,สาม
403935,-0.2320,0.0570,0.0203,0.3065,1.1594,-9.7430,1.8371,7.1745,172.5916,0.0000,0.0000,0.0000,0.0000,0.0000,สาม
404051,-0.2129,0.0536,0.0529,0.3256,1.1606,-9.7352,1.8437,7.1365,172.6268,0.0000,0.0000,0.0000,0.0000,0.0000,สาม
404167,-0.1678,0.0995,-0.0294,0.2706,1.2301,-9.6711,1.8184,7.1474,172.6226,0.0000,0.0000,0.0000,0.0000,0.0000,สาม
404283,-0.2352,0.0723,-0.0187,0.3238,1.2702,-9.7424,1.8253,7.1751,172.5939,0.0000,0.0000,0.0000,0.0000,0.0000,สาม
404399,-0.2418,0.0908,0.0732,0.2251,1.2450,-9.7011,1.7747,7.1888,172.5932,0.0000,0.0000,0.0000,0.0000,0.0000,สาม
404515,-0.2294,0.0723,-0.0210,0.3406,1.1475,-9.7459,1.7961,7.1409,172.6344,0.0000,0.0000,0.0000,0.0000,0.0000,สาม
404631,-0.1969,0.0761,-0.0526,0.2682,1.1792,-9.7537,1.7728,7.1158,172.6644,0.0000,0.0000,0.0000,0.0000,0.0000,สาม
404747,-0.1853,0.0710,0.0592,0.2281,1.2115,-9.7292,1.7287,7.1139,172.6770,0.0000,0.0000,0.0000,0.0000,0.0000,สาม
404863,-0.2174,0.0852,-0.0255,0.3322,1.1953,-9.7513,1.7496,7.1009,172.6845,0.0000,0.0000,0.0000,0.0000,0.0000,สาม
404979,-0.2003,0.0755,-0.0282,0.3047,1.2438,-9.7424,1.7523,7.1181,172.6672,0.0000,0.0000,0.0000,0.0000,0.0000,สาม
405095,-0.2031,0.0744,0.0374,0.3143,1.2355,-9.7370,1.7605,7.1291,172.6546,0.0000,0.0000,0.0000,0.0000,0.0000,สาม
405211,-0.2124,0.0773,-0.0536,0.3119,1.2139,-9.7322,1.7665,7.1268,172.6553,0.0000,0.0000,0.0000,0.0000,0.0000,สาม
405327,-0.1940,0.0777,0.0104,0.3454,1.2468,-9.7352,1.7914,7.1435,172.6330,0.0000,0.0000,0.0000,0.0000,0.0000,สาม
405443,-0.1898,0.0769,0.0380,0.3214,1.2055,-9.7394,1.7999,7.1344,172.6398,0.0000,0.0000,0.0000,0.0000,0.0000,สาม
405559,-0.1869,0.0687,-0.0278,0.2765,1.2289,-9.7316,1.7814,7.1404,172.6385,0.0000,0.0000,0.0000,0.0000,0.0000,สาม
405675,-0.2004,0.0844,0.0067,0.3364,1.2181,-9.7052,1.8002,7.1413,172.6330,0.0000,0.0000,0.0000,0.0000,0.0000,สาม
405791,-0.1817,0.0814,0.0008,0.2807,1.2480,-9.7268,1.7841,7.1580,172.6207,0.0000,0.0000,0.0000,0.0000,0.0000,สาม
405907,-0.1828,0.0740,-0.0473,0.3190,1.2055,-9.7513,1.7917,7.1466,172.6300,0.0000,0.0000,0.0000,0.0000,0.0000,สาม
406023,-0.2072,0.0514,0.0885,0.2933,1.2558,-9.7358,1.7837,7.1666,172.6125,0.0000,0.0000,0.0000,0.0000,0.0000,สาม
406139,-0.2245,0.0750,-0.0195,0.3077,1.2366,-9.7238,1.7851,7.1743,172.6046,0.0000,0.0000,0.0000,0.0000,0.0000,สาม
406255,-0.1813,0.0714,0.0053,0.2293,1.3354,-9.7519,1.7399,7.2366,172.5549,0.0000,0.0000,0.0000,0.0000,0.0000,สาม
406371,-0.2987,0.1224,-0.0432,0.3029,0.9655,-9.6915,1.7440,7.0827,172.7036,0.0000,0.0000,0.0000,0.0000,0.0000,สาม
406487,-0.1719,0.0252,0.0166,0.2251,0.9487,-9.7531,1.7013,6.9300,172.8623,0.0000,0.0000,0.0000,0.0000,0.0000,สาม
406603,-0.1309,0.0124,-0.0875,0.3556,1.2067,-9.7579,1.7384,6.9415,172.8420,0.0000,0.0000,0.0000,0.0000,0.0000,สาม
406719,-0.1975,0.0429,-0.0536,0.2831,1.2378,-9.7070,1.7303,6.9737,172.8127,0.0000,0.0000,0.0000,0.0000,0.0000,สาม
406835,-0.1869,0.0988,0.0019,0.2334,1.2025,-9.7298,1.6937,6.9807,172.8148,0.0000,0.0000,0.0000,0.0000,0.0000,สาม
406951,-0.1669,0.0849,0.0337,0.2843,1.2366,-9.7262,1.6904,7.0070,172.7900,0.0000,0.0000,0.0000,0.0000,0.0000,สาม
407067,-0.1830,0.0271,0.0421,0.2849,1.1816,-9.7771,1.6871,6.9950,172.8024,0.0000,0.0000,0.0000,0.0000,0.0000,สาม
407183,-0.1682,0.0680,-0.0063,0.2670,1.2570,-9.7100,1.6746,7.0328,172.7686,0.0000,0.0000,0.0000,0.0000,0.0000,สาม
407299,-0.1780,0.0862,0.0247,0.3663,1.2085,-9.7244,1.7212,7.0375,172.7531,0.0000,0.0000,0.0000,0.0000,0.0000,สาม
407415,-0.1913,0.0770,-0.0673,0.3101,1.2199,-9.7376,1.7300,7.0474,172.7412,0.0000,0.0000,0.0000,0.0000,0.0000,สาม
407531,-0.1690,0.0811,0.0327,0.2897,1.2199,-9.7112,1.7266,7.0583,172.7315,0.0000,0.0000,0.0000,0.0000,0.0000,สาม
407647,-0.2172,0.0967,-0.0281,0.3699,1.2498,-9.7376,1.7698,7.0834,172.6967,0.0000,0.0000,0.0000,0.0000,0.0000,สาม
407763,-0.2014,0.0900,0.0331,0.3101,1.2546,-9.7052,1.7743,7.1112,172.6685,0.0000,0.0000,0.0000,0.0000,0.0000,สาม
407879,-0.2200,0.1284,0.0147,0.2915,1.3061,-9.7130,1.7672,7.1656,172.6175,0.0000,0.0000,0.0000,0.0000,0.0000,สาม
407995,-0.2034,0.0859,-0.0247,0.3101,1.1989,-9.7232,1.7718,7.1516,172.6299,0.0000,0.0000,0.0000,0.0000,0.0000,สาม
408111,-0.1896,0.0864,0.0367,0.3029,1.2259,-9.7447,1.7712,7.1531,172.6286,0.0000,0.0000,0.0000,0.0000,0.0000,สาม
408227,-0.1891,0.0510,0.0296,0.2735,1.2504,-9.7376,1.7537,7.1693,172.6171,0.0000,0.0000,0.0000,0.0000,0.0000,สาม
408343,-0.2236,0.0751,0.0218,0.3160,1.2480,-9.7017,1.7634,7.1850,172.5996,0.0000,0.0000,0.0000,0.0000,0.0000,สาม
408459,-0.2121,0.0909,0.0218,0.3053,1.2510,-9.6969,1.7658,7.2012,172.5832,0.0000,0.0000,0.0000,0.0000,0.0000,สาม
408575,-0.1834,0.0600,0.0075,0.2981,1.1594,-9.7430,1.7633,7.1594,172.6245,0.0000,0.0000,0.0000,0.0000,0.0000,สาม
408691,-0.1755,0.0646,-0.0219,0.3292,1.2145,-9.7376,1.7791,7.1540,172.6259,0.0000,0.0000,0.0000,0.0000,0.0000,สาม
408807,-0.1677,0.0718,-0.0085,0.2604,1.2295,-9.6987,1.7538,7.1608,172.6254,0.0000,0.0000,0.0000,0.0000,0.0000,สาม
408923,-0.1823,0.1077,-0.0105,0.3328,1.2654,-9.7082,1.7731,7.1869,172.5954,0.0000,0.0000,0.0000,0.0000,0.0000,สาม
409039,-0.1684,0.0755,-0.0168,0.3214,1.2085,-9.7046,1.7840,7.1777,172.6017,0.0000,0.0000,0.0000,0.0000,0.0000,สาม
409155,-0.2042,0.0671,0.0012,0.4519,1.2366,-9.7621,1.8690,7.1812,172.5771,0.0000,0.0000,0.0000,0.0000,0.0000,สาม
409271,-0.2033,0.0778,-0.0158,0.3011,1.2259,-9.7753,1.8571,7.1775,172.5837,0.0000,0.0000,0.0000,0.0000,0.0000,สาม
409387,-0.2249,0.0582,-0.0206,0.3172,1.2414,-9.7328,1.8566,7.1863,172.5753,0.0000,0.0000,0.0000,0.0000,0.0000,สาม
409503,-0.2256,0.1007,0.0585,0.3017,1.0870,-9.6867,1.8482,7.1080,172.6532,0.0000,0.0000,0.0000,0.0000,0.0000,สาม
409619,-0.1919,0.0620,-0.0139,0.3113,1.2708,-9.7040,1.8456,7.1429,172.6201,0.0000,0.0000,0.0000,0.0000,0.0000,สาม
409735,-0.2140,0.0814,-0.0091,0.2694,1.2175,-9.7226,1.8185,7.1421,172.6277,0.0000,0.0000,0.0000,0.0000,0.0000,สาม
409851,-0.2180,0.0792,-0.0896,0.2729,1.2361,-9.7447,1.7958,7.1505,172.6252,0.0000,0.0000,0.0000,0.0000,0.0000,สาม
409967,-0.2289,0.0761,0.0292,0.2759,1.2193,-9.7352,1.7773,7.1491,172.6311,0.0000,0.0000,0.0000,0.0000,0.0000,สาม
410083,-0.2011,0.0690,0.0165,0.2927,1.2331,-9.7124,1.7708,7.1574,172.6246,0.0000,0.0000,0.0000,0.0000,0.0000,สาม
410199,-0.1756,0.0544,-0.0112,0.3143,1.1971,-9.6891,1.7781,7.1457,172.6342,0.0000,0.0000,0.0000,0.0000,0.0000,สาม
410315,-0.1813,0.0461,-0.0440,0.2867,1.2498,-9.7232,1.7678,7.1632,172.6196,0.0000,0.0000,0.0000,0.0000,0.0000,สาม
410431,-0.1993,0.0637,0.0019,0.3567,1.2073,-9.7507,1.7990,7.1523,172.6227,0.0000,0.0000,0.0000,0.0000,0.0000,สาม
410547,-0.1835,0.0747,0.0048,0.2951,1.2672,-9.7196,1.7916,7.1795,172.5981,0.0000,0.0000,0.0000,0.0000,0.0000,สาม
410663,-0.2378,0.0995,-0.0688,0.3166,1.2013,-9.7591,1.7969,7.1629,172.6129,0.0000,0.0000,0.0000,0.0000,0.0000,สาม
410779,-0.2125,0.0588,-0.0408,0.2963,1.2241,-9.7232,1.7904,7.1638,172.6136,0.0000,0.0000,0.0000,0.0000,0.0000,สาม
410895,-0.2057,0.0703,-0.0074,0.3011,1.1989,-9.7322,1.7872,7.1494,172.6283,0.0000,0.0000,0.0000,0.0000,0.0000,สาม
411011,-0.2364,0.0600,0.0219,0.2724,1.1576,-9.7094,1.7681,7.1142,172.6672,0.0000,0.0000,0.0000,0.0000,0.0000,สาม
411127,-0.1794,0.0488,-0.0811,0.3256,1.2181,-9.7280,1.7815,7.1161,172.6620,0.0000,0.0000,0.0000,0.0000,0.0000,สาม
411243,-0.1840,0.0608,-0.0274,0.2969,1.2025,-9.7046,1.7773,7.1106,172.6685,0.0000,0.0000,0.0000,0.0000,0.0000,สาม
411359,-0.1988,0.0650,0.0410,0.3244,1.2187,-9.7011,1.7896,7.1151,172.6610,0.0000,0.0000,0.0000,0.0000,0.0000,สาม
411475,-0.1941,0.0853,-0.0217,0.2981,1.2355,-9.7436,1.7844,7.1259,172.6518,0.0000,0.0000,0.0000,0.0000,0.0000,สาม
411591,-0.1780,0.0811,0.0110,0.3166,1.2331,-9.7430,1.7907,7.1343,172.6422,0.0000,0.0000,0.0000,0.0000,0.0000,สาม
411707,-0.1744,0.0653,0.0434,0.3262,1.2408,-9.7046,1.8026,7.1491,172.6249,0.0000,0.0000,0.0000,0.0000,0.0000,สาม
411823,-0.2414,0.0645,0.0327,0.2652,1.2349,-9.7262,1.7772,7.1575,172.6230,0.0000,0.0000,0.0000,0.0000,0.0000,สาม
411939,-0.2233,0.0553,0.0568,0.3077,1.1942,-9.7304,1.7793,7.1410,172.6384,0.0000,0.0000,0.0000,0.0000,0.0000,สาม
412055,-0.2147,0.0627,-0.0179,0.2891,1.2175,-9.7388,1.7700,7.1392,172.6424,0.0000,0.0000,0.0000,0.0000,0.0000,สาม
412171,-0.1958,0.0791,-0.0330,0.2981,1.2540,-9.7346,1.7670,7.1590,172.6239,0.0000,0.0000,0.0000,0.0000,0.0000,สาม
412287,-0.2181,0.0688,0.0408,0.2508,1.2331,-9.6915,1.7375,7.1679,172.6224,0.0000,0.0000,0.0000,0.0000,0.0000,สาม
412403,-0.2429,0.0637,-0.0131,0.3406,1.1744,-9.7220,1.7629,7.1395,172.6438,0.0000,0.0000,0.0000,0.0000,0.0000,สาม
412519,-0.2011,0.0774,-0.0080,0.2334,1.2504,-9.7280,1.7229,7.1578,172.6356,0.0000,0.0000,0.0000,0.0000,0.0000,สาม
412635,-0.2237,0.0902,0.0258,0.3334,1.2091,-9.7358,1.7453,7.1496,172.6383,0.0000,0.0000,0.0000,0.0000,0.0000,สาม
412751,-0.2247,0.0504,-0.0255,0.3603,1.2384,-9.7364,1.7811,7.1591,172.6205,0.0000,0.0000,0.0000,0.0000,0.0000,สาม
412867,-0.2102,0.0630,0.0740,0.2598,1.1936,-9.7531,1.7544,7.1406,172.6449,0.0000,0.0000,0.0000,0.0000,0.0000,สาม
412983,-0.2247,0.0544,-0.0479,0.2951,1.2307,-9.7412,1.7511,7.1462,172.6402,0.0000,0.0000,0.0000,0.0000,0.0000,สาม
413099,-0.1879,0.0628,-0.0391,0.3083,1.3552,-9.7567,1.7552,7.2223,172.5653,0.0000,0.0000,0.0000,0.0000,0.0000,สาม
413215,-0.2275,0.0870,-0.0424,0.2670,1.2666,-9.6993,1.7361,7.2437,172.5490,0.0000,0.0000,0.0000,0.0000,0.0000,สาม
413331,-0.2209,0.0747,0.0638,0.2909,1.2283,-9.7190,1.7326,7.2393,172.5541,0.0000,0.0000,0.0000,0.0000,0.0000,สาม
413447,-0.1974,0.0862,-0.0840,0.3208,1.2181,-9.7561,1.7463,7.2266,172.5632,0.0000,0.0000,0.0000,0.0000,0.0000,สาม
413563,-0.2080,0.0643,0.0210,0.2574,1.2247,-9.7011,1.7225,7.2232,172.5721,0.0000,0.0000,0.0000,0.0000,0.0000,สาม
413679,-0.1834,0.0673,-0.0134,0.2676,1.2217,-9.7430,1.7063,7.2154,172.5835,0.0000,0.0000,0.0000,0.0000,0.0000,สาม
413795,-0.2098,0.0860,-0.0259,0.3370,1.2331,-9.7112,1.7328,7.2170,172.5757,0.0000,0.0000,0.0000,0.0000,0.0000,สาม
413911,-0.2030,0.0555,-0.0083,0.2712,1.2564,-9.7561,1.7174,7.2289,172.5678,0.0000,0.0000,0.0000,0.0000,0.0000,สาม
414027,-0.2119,0.0646,-0.0189,0.3137,1.2474,-9.7262,1.7288,7.2365,172.5577,0.0000,0.0000,0.0000,0.0000,0.0000,สาม
414143,-0.2039,0.0368,0.0354,0.3262,1.2073,-9.7148,1.7468,7.2209,172.5686,0.0000,0.0000,0.0000,0.0000,0.0000,สาม
414259,-0.2045,0.0736,0.0462,0.2706,1.2492,-9.7519,1.7297,7.2285,172.5653,0.0000,0.0000,0.0000,0.0000,0.0000,สาม
414375,-0.2039,0.0872,-0.0275,0.3424,1.2361,-9.7256,1.7567,7.2295,172.5579,0.0000,0.0000,0.0000,0.0000,0.0000,สาม
414491,-0.2093,0.0691,-0.0318,0.2963,1.1989,-9.7447,1.7539,7.2077,172.5798,0.0000,0.0000,0.0000,0.0000,0.0000,สาม
414607,-0.1658,0.0678,0.0344,0.3166,1.1906,-9.7322,1.7635,7.1840,172.6005,0.0000,0.0000,0.0000,0.0000,0.0000,สาม
414723,-0.1772,0.0858,-0.0124,0.3268,1.2301,-9.7424,1.7778,7.1848,172.5963,0.0000,0.0000,0.0000,0.0000,0.0000,สาม
414839,-0.1967,0.0428,-0.0031,0.3292,1.2007,-9.7118,1.7927,7.1708,172.6063,0.0000,0.0000,0.0000,0.0000,0.0000,สาม
414955,-0.2202,0.0787,-0.0195,0.2652,1.3181,-9.7178,1.7683,7.2258,172.5587,0.0000,0.0000,0.0000,0.0000,0.0000,สาม
415071,-0.2108,0.1104,-0.0166,0.2999,1.2785,-9.6945,1.7671,7.2541,172.5315,0.0000,0.0000,0.0000,0.0000,0.0000,สาม
415187,-0.2507,0.1133,-0.0750,0.2574,1.3719,-9.7154,1.7407,7.3322,172.4618,0.0000,0.0000,0.0000,0.0000,0.0000,สาม
415303,-0.0240,0.0691,-0.0386,0.2490,0.9835,-9.7178,1.7128,7.1773,172.6191,0.0000,0.0000,0.0000,0.0000,0.0000,สาม
415419,-0.1735,0.0838,0.0943,0.5806,1.2648,-9.7687,1.8798,7.1963,172.5597,0.0000,0.0000,0.0000,0.0000,0.0000,สาม
415535,-0.2952,0.0693,-0.0109,0.3364,1.4222,-9.7130,1.8881,7.3094,172.4481,0.0000,0.0000,0.0000,0.0000,0.0000,สาม
415651,-0.1545,0.1568,-0.0270,0.2269,0.9864,-9.6903,1.8331,7.1605,172.6062,0.0000,0.0000,0.0000,0.0000,0.0000,สาม
415767,-0.2298,0.1207,-0.0059,0.3172,1.3378,-9.7262,1.8349,7.2273,172.5410,0.0000,0.0000,0.0000,0.0000,0.0000,สาม
415883,-0.2169,0.0560,-0.0157,0.5160,1.2097,-9.7310,1.9528,7.2124,172.5252,0.0000,0.0000,0.0000,0.0000,0.0000,สาม
415999,-0.2309,0.0841,-0.0195,0.3520,1.1163,-9.7352,1.9632,7.1449,172.5876,0.0000,0.0000,0.0000,0.0000,0.0000,สาม
416115,-0.1853,0.0866,0.1074,0.0832,1.3594,-9.6729,1.8162,7.2302,172.5428,0.0000,0.0000,0.0000,0.0000,0.0000,สาม
416231,-0.3275,0.0795,0.0431,0.4591,1.0541,-9.6747,1.9042,7.1290,172.6185,0.0000,0.0000,0.0000,0.0000,0.0000,สาม
416347,-0.3228,0.0679,0.0326,0.4585,1.1457,-9.8327,1.9798,7.0795,172.6462,0.0000,0.0000,0.0000,0.0000,0.0000,สาม
416463,-0.1155,0.0751,-0.0425,0.0311,1.2797,-9.6598,1.8012,7.1262,172.6474,0.0000,0.0000,0.0000,0.0000,0.0000,สาม
416579,-0.1500,0.0832,0.0360,0.2712,1.1451,-9.6190,1.7816,7.0926,172.6849,0.0000,0.0000,0.0000,0.0000,0.0000,สาม
416695,-0.2274,0.0988,-0.0192,0.5591,1.1074,-9.7621,1.9298,7.0293,172.7080,0.0000,0.0000,0.0000,0.0000,0.0000,สาม
416811,-0.2432,0.0912,0.0203,0.4184,1.0906,-9.7070,1.9820,6.9670,172.7539,0.0000,0.0000,0.0000,0.0000,0.0000,สาม
416927,0.1052,0.0249,-0.0279,0.2634,1.1157,-9.6155,1.9401,6.9323,172.7988,0.0000,0.0000,0.0000,0.0000,0.0000,สาม
417043,-0.1242,0.0256,0.0470,0.5441,1.2361,-9.7711,2.0632,6.9593,172.7384,0.0000,0.0000,0.0000,0.0000,0.0000,สาม
417159,-0.3213,0.0431,-0.0110,0.5567,1.2468,-9.7675,2.1812,6.9900,172.6744,0.0000,0.0000,0.0000,0.0000,0.0000,สาม
417275,-0.2739,0.0489,0.0454,0.1053,1.2570,-9.7304,2.0244,7.0273,172.6841,0.0000,0.0000,0.0000,0.0000,0.0000,สาม
417391,-0.2308,0.0750,-0.0059,0.2855,1.1469,-9.7489,1.9885,6.9952,172.7249,0.0000,0.0000,0.0000,0.0000,0.0000,สาม
417507,-0.1962,0.0768,-0.0095,0.3711,1.1391,-9.7406,2.0064,6.9621,172.7518,0.0000,0.0000,0.0000,0.0000,0.0000,สาม
417623,-0.2305,0.0525,0.0195,0.2777,1.1528,-9.7801,1.9672,6.9378,172.7860,0.0000,0.0000,0.0000,0.0000,0.0000,สาม
417739,-0.2080,0.0897,0.0442,0.2322,1.3474,-9.6550,1.9072,7.0378,172.7058,0.0000,0.0000,0.0000,0.0000,0.0000,สาม
417855,-0.2143,0.0829,-0.0275,0.3939,1.2343,-9.7280,1.9466,7.0566,172.6772,0.0000,0.0000,0.0000,0.0000,0.0000,สาม
417971,-0.2222,0.0665,0.0324,0.3089,1.2007,-9.7358,1.9322,7.0536,172.6839,0.0000,0.0000,0.0000,0.0000,0.0000,สาม
418087,-0.2433,0.0626,0.0008,0.2951,1.2085,-9.7298,1.9114,7.0560,172.6871,0.0000,0.0000,0.0000,0.0000,0.0000,สาม
418203,-0.1865,0.0841,0.0056,0.3969,1.1044,-9.7154,1.9526,6.9985,172.7316,0.0000,0.0000,0.0000,0.0000,0.0000,สาม
418319,-0.1363,0.0342,0.0034,0.3478,1.0619,-9.7172,1.9611,6.9220,172.8029,0.0000,0.0000,0.0000,0.0000,0.0000,สาม
418435,-0.3262,-0.0354,0.0185,0.0078,1.3222,-9.7130,1.7695,7.0054,172.7724,0.0000,0.0000,0.0000,0.0000,0.0000,สาม
418551,-0.1685,0.0438,-0.0271,0.1167,1.0080,-9.7597,1.6607,6.8945,172.9065,0.0000,0.0000,0.0000,0.0000,0.0000,สาม
418667,-0.2001,-0.0228,0.0115,-0.0826,0.9876,-9.8166,1.4454,6.7793,173.0670,0.0000,0.0000,0.0000,0.0000,0.0000,สาม
418783,-0.2949,0.0222,-0.0363,0.2622,1.2762,-9.7693,1.4533,6.8456,173.0004,0.0000,0.0000,0.0000,0.0000,0.0000,สาม
418899,-0.1993,0.0897,0.0270,0.1730,1.2235,-9.7340,1.4090,6.8774,172.9784,0.0000,0.0000,0.0000,0.0000,0.0000,สาม
419015,-0.1235,0.0874,0.0030,0.2490,1.2648,-9.6711,1.4143,6.9342,172.9217,0.0000,0.0000,0.0000,0.0000,0.0000,สาม
419131,-0.1918,0.0973,-0.0440,0.3041,1.2265,-9.7040,1.4509,6.9607,172.8882,0.0000,0.0000,0.0000,0.0000,0.0000,สาม
419247,-0.1875,0.0671,0.0255,0.4250,1.1726,-9.7220,1.5543,6.9518,172.8749,0.0000,0.0000,0.0000,0.0000,0.0000,สาม
419363,-0.2185,0.0916,-0.0868,0.2568,1.1798,-9.7394,1.5488,6.9471,172.8807,0.0000,0.0000,0.0000,0.0000,0.0000,สาม
419479,-0.2277,0.0538,0.0120,0.2574,1.2013,-9.7489,1.5440,6.9547,172.8744,0.0000,0.0000,0.0000,0.0000,0.0000,สาม
419595,-0.1174,0.0485,-0.0626,0.5543,1.1876,-9.7322,1.7134,6.9541,172.8360,0.0000,0.0000,0.0000,0.0000,0.0000,สาม
419711,-0.2046,0.0513,-0.0025,0.2328,1.3390,-9.7136,1.6781,7.0433,172.7576,0.0000,0.0000,0.0000,0.0000,0.0000,สาม
419827,-0.2838,0.0459,0.0710,0.2448,1.4312,-9.8303,1.6512,7.1685,172.6418,0.0000,0.0000,0.0000,0.0000,0.0000,สาม
419943,-0.2759,0.0908,-0.0637,0.3131,1.2295,-9.7220,1.6690,7.1721,172.6343,0.0000,0.0000,0.0000,0.0000,0.0000,สาม
420059,-0.2653,0.1456,0.0556,0.3777,1.5126,-9.7597,1.7215,7.3362,172.4624,0.0000,0.0000,0.0000,0.0000,0.0000,สาม
420175,-0.3669,0.1824,0.0568,0.2909,1.4354,-9.6167,1.7207,7.4501,172.3516,0.0000,0.0000,0.0000,0.0000,0.0000,สาม
420291,-0.2691,0.1133,0.0204,0.4112,1.3061,-9.8429,1.7865,7.4604,172.3263,0.0000,0.0000,0.0000,0.0000,0.0000,สาม
420407,-0.2380,0.1020,0.0155,0.2837,1.1900,-9.6490,1.7752,7.4175,172.3707,0.0000,0.0000,0.0000,0.0000,0.0000,สาม
420523,-0.2007,0.0664,0.0180,0.3556,1.2001,-9.7011,1.8059,7.3807,172.3992,0.0000,0.0000,0.0000,0.0000,0.0000,สาม
420639,-0.1463,0.0883,-0.0260,0.3478,1.2175,-9.6747,1.8294,7.3595,172.4141,0.0000,0.0000,0.0000,0.0000,0.0000,สาม
420755,-0.1532,0.0739,0.0360,0.3986,1.2708,-9.6657,1.8804,7.3719,172.3895,0.0000,0.0000,0.0000,0.0000,0.0000,สาม
420871,-0.1982,0.0605,-0.0459,0.4759,1.4497,-9.7148,1.9700,7.4829,172.2593,0.0000,0.0000,0.0000,0.0000,0.0000,สาม
420987,-0.2236,0.0473,-0.0010,0.3370,1.3169,-9.7286,1.9696,7.5050,172.2379,0.0000,0.0000,0.0000,0.0000,0.0000,สาม
421103,-0.3241,0.1018,0.0338,0.3855,1.2738,-9.6987,1.9983,7.5021,172.2333,0.0000,0.0000,0.0000,0.0000,0.0000,สาม
421219,-0.2611,0.0742,-0.0065,0.3202,1.2929,-9.6909,1.9861,7.5114,172.2275,0.0000,0.0000,0.0000,0.0000,0.0000,สาม
421335,-0.2668,0.0763,-0.0297,0.4112,1.1870,-9.7436,2.0275,7.4541,172.2720,0.0000,0.0000,0.0000,0.0000,0.0000,สาม
421451,-0.2346,0.0607,0.0030,0.2951,1.1989,-9.7268,1.9972,7.4111,172.3216,0.0000,0.0000,0.0000,0.0000,0.0000,สาม
421567,-0.2307,0.0789,-0.0383,0.3029,1.1882,-9.7250,1.9745,7.3663,172.3709,0.0000,0.0000,0.0000,0.0000,0.0000,สาม
421683,-0.1673,0.0292,0.0097,0.3897,1.2025,-9.7370,2.0046,7.3331,172.3950,0.0000,0.0000,0.0000,0.0000,0.0000,สาม
421799,-0.4271,0.0469,0.0363,0.3238,1.3528,-9.8633,1.9902,7.3810,172.3525,0.0000,0.0000,0.0000,0.0000,0.0000,สาม
421915,-0.3093,0.0391,-0.0055,0.1981,1.3480,-9.6945,1.9074,7.4342,172.3223,0.0000,0.0000,0.0000,0.0000,0.0000,สาม
422031,-0.2654,0.1021,-0.0341,0.4603,1.2343,-9.7370,1.9852,7.4125,172.3234,0.0000,0.0000,0.0000,0.0000,0.0000,สาม
422147,-0.2676,0.1042,-0.0014,0.2167,1.2815,-9.7178,1.9135,7.4224,172.3323,0.0000,0.0000,0.0000,0.0000,0.0000,สาม
422263,-0.2920,0.1256,0.0091,0.3633,1.2283,-9.7370,1.9341,7.3986,172.3500,0.0000,0.0000,0.0000,0.0000,0.0000,สาม
422379,-0.2304,0.0828,-0.0050,0.4076,1.2235,-9.7430,1.9785,7.3739,172.3625,0.0000,0.0000,0.0000,0.0000,0.0000,สาม
422495,-0.2348,0.0669,0.0086,0.2281,1.2199,-9.6376,1.9157,7.3578,172.3942,0.0000,0.0000,0.0000,0.0000,0.0000,สาม
422611,-0.2511,0.0562,-0.0484,0.2604,1.1953,-9.7202,1.8765,7.3229,172.4379,0.0000,0.0000,0.0000,0.0000,0.0000,สาม
422727,-0.2532,0.0742,0.0975,0.3765,1.2821,-9.7298,1.9086,7.3408,172.4125,0.0000,0.0000,0.0000,0.0000,0.0000,สาม
422843,-0.2737,0.0928,-0.0278,0.2526,1.3049,-9.7831,1.8641,7.3664,172.3989,0.0000,0.0000,0.0000,0.0000,0.0000,สาม
422959,-0.2037,0.1333,0.0526,0.3418,1.2169,-9.6490,1.8788,7.3483,172.4128,0.0000,0.0000,0.0000,0.0000,0.0000,สาม
423075,-0.1986,0.0733,-0.0579,0.3430,1.1367,-9.7430,1.8912,7.2784,172.4773,0.0000,0.0000,0.0000,0.0000,0.0000,สาม
423191,-0.1543,0.0594,-0.0120,0.3526,1.2103,-9.6897,1.9088,7.2621,172.4886,0.0000,0.0000,0.0000,0.0000,0.0000,สาม
423307,-0.1949,0.0382,-0.0147,0.4555,1.2133,-9.7597,1.9834,7.2438,172.4868,0.0000,0.0000,0.0000,0.0000,0.0000,สาม
423423,-0.1759,0.0648,0.0213,0.3885,1.2085,-9.8226,2.0101,7.2201,172.5025,0.0000,0.0000,0.0000,0.0000,0.0000,สาม
423539,-0.1382,0.0957,-0.0322,0.2951,1.1906,-9.6861,1.9824,7.1986,172.5306,0.0000,0.0000,0.0000,0.0000,0.0000,สาม
423655,-0.2421,0.0691,0.0867,0.4579,1.2247,-9.7519,2.0511,7.1938,172.5165,0.0000,0.0000,0.0000,0.0000,0.0000,สาม
423771,-0.2384,0.0548,0.0082,0.3089,1.2247,-9.7675,2.0256,7.1887,172.5284,0.0000,0.0000,0.0000,0.0000,0.0000,สาม
423887,-0.2635,0.0798,0.0011,0.2562,1.3588,-9.7124,1.9727,7.2659,172.4682,0.0000,0.0000,0.0000,0.0000,0.0000,สาม
424003,-0.2225,0.0609,0.0274,0.3639,1.2127,-9.7376,1.9879,7.2488,172.4808,0.0000,0.0000,0.0000,0.0000,0.0000,สาม
424119,-0.1570,0.0847,0.0018,0.2107,1.2187,-9.7340,1.9122,7.2374,172.5116,0.0000,0.0000,0.0000,0.0000,0.0000,สาม
424235,-0.2112,0.0383,0.0740,0.3214,1.2043,-9.7370,1.9086,7.2184,172.5310,0.0000,0.0000,0.0000,0.0000,0.0000,สาม
424351,-0.2743,0.0646,-0.0389,0.2700,1.1720,-9.7268,1.8756,7.1834,172.5733,0.0000,0.0000,0.0000,0.0000,0.0000,สาม
424467,-0.1545,0.0140,-0.0515,0.1143,0.9625,-9.7573,1.7550,7.0287,172.7534,0.0000,0.0000,0.0000,0.0000,0.0000,สาม
424583,-0.0877,0.0432,0.0034,0.3286,1.2097,-9.7483,1.7712,7.0328,172.7454,0.0000,0.0000,0.0000,0.0000,0.0000,สาม
424699,-0.1625,0.0676,0.0398,0.3508,1.2462,-9.6939,1.7995,7.0615,172.7105,0.0000,0.0000,0.0000,0.0000,0.0000,สาม
424815,-0.2425,0.0852,0.0228,0.3442,1.2594,-9.7412,1.8203,7.0916,172.6761,0.0000,0.0000,0.0000,0.0000,0.0000,สาม
424931,-0.2532,0.0800,0.0168,0.3071,1.1696,-9.7543,1.8173,7.0659,172.7019,0.0000,0.0000,0.0000,0.0000,0.0000,สาม
425047,-0.2053,0.0768,0.0100,0.3909,1.2025,-9.7184,1.8640,7.0641,172.6917,0.0000,0.0000,0.0000,0.0000,0.0000,สาม
425163,-0.1461,0.0802,-0.0301,0.2807,1.2043,-9.7256,1.8417,7.0633,172.6981,0.0000,0.0000,0.0000,0.0000,0.0000,สาม
425279,-0.1940,0.0720,-0.0034,0.2406,1.2762,-9.7358,1.7979,7.1036,172.6702,0.0000,0.0000,0.0000,0.0000,0.0000,สาม
425395,-0.2286,0.0939,0.0057,0.3077,1.2384,-9.7292,1.7978,7.1183,172.6559,0.0000,0.0000,0.0000,0.0000,0.0000,สาม
425511,-0.3474,0.0823,-0.0376,0.2831,1.0403,-9.6969,1.7844,7.0191,172.7554,0.0000,0.0000,0.0000,0.0000,0.0000,สาม
425627,0.0359,0.0346,-0.0619,0.3849,1.0972,-9.7394,1.8309,6.9594,172.8015,0.0000,0.0000,0.0000,0.0000,0.0000,สาม
425743,-0.1707,0.0673,0.0214,0.3166,1.3378,-9.7190,1.8327,7.0469,172.7164,0.0000,0.0000,0.0000,0.0000,0.0000,สาม
425859,-0.2461,0.0389,-0.0194,0.3484,1.2839,-9.7274,1.8528,7.0937,172.6659,0.0000,0.0000,0.0000,0.0000,0.0000,สาม
425975,-0.2736,0.0753,-0.0284,0.2795,1.2492,-9.6939,1.8314,7.1183,172.6476,0.0000,0.0000,0.0000,0.0000,0.0000,สาม
426091,-0.2189,0.0763,-0.0082,0.2909,1.1977,-9.7513,1.8178,7.1063,172.6625,0.0000,0.0000,0.0000,0.0000,0.0000,สาม
426207,-0.2153,0.0687,0.0146,0.3484,1.2043,-9.7046,1.8400,7.1027,172.6605,0.0000,0.0000,0.0000,0.0000,0.0000,สาม
426323,-0.2008,0.0806,0.0281,0.2700,1.1977,-9.7298,1.8137,7.0939,172.6756,0.0000,0.0000,0.0000,0.0000,0.0000,สาม
426439,-0.2199,0.0709,-0.0055,0.3208,1.1936,-9.7130,1.8201,7.0847,172.6829,0.0000,0.0000,0.0000,0.0000,0.0000,สาม
426555,-0.1919,0.0605,0.0110,0.3274,1.2277,-9.7262,1.8294,7.0953,172.6703,0.0000,0.0000,0.0000,0.0000,0.0000,สาม
426671,-0.2367,0.0960,0.0354,0.3065,1.2618,-9.7304,1.8254,7.1243,172.6432,0.0000,0.0000,0.0000,0.0000,0.0000,สาม
426787,-0.2380,0.0992,-0.0698,0.2706,1.2510,-9.7256,1.8009,7.1445,172.6297,0.0000,0.0000,0.0000,0.0000,0.0000,สาม
426903,-0.2308,0.0405,0.0878,0.1586,1.2624,-9.7328,1.7133,7.1691,172.6269,0.0000,0.0000,0.0000,0.0000,0.0000,สาม
427019,-0.1936,0.0791,-0.0065,0.2855,1.2079,-9.7340,1.7087,7.1593,172.6376,0.0000,0.0000,0.0000,0.0000,0.0000,สาม
427135,-0.1749,0.0807,0.0244,0.3178,1.2157,-9.7717,1.7228,7.1521,172.6412,0.0000,0.0000,0.0000,0.0000,0.0000,สาม
427251,-0.1964,0.0532,-0.0353,0.3077,1.2337,-9.7172,1.7304,7.1601,172.6317,0.0000,0.0000,0.0000,0.0000,0.0000,สาม
427367,-0.2068,0.0922,0.0236,0.2795,1.2444,-9.7292,1.7206,7.1727,172.6217,0.0000,0.0000,0.0000,0.0000,0.0000,สาม
427483,-0.2393,0.0713,-0.0243,0.2873,1.2307,-9.7178,1.7166,7.1768,172.6186,0.0000,0.0000,0.0000,0.0000,0.0000,สาม
427599,-0.1959,0.0507,0.0727,0.3083,1.1660,-9.6909,1.7258,7.1450,172.6474,0.0000,0.0000,0.0000,0.0000,0.0000,สาม
427715,-0.1565,0.0616,0.0074,0.2987,1.2211,-9.7424,1.7274,7.1446,172.6474,0.0000,0.0000,0.0000,0.0000,0.0000,สาม
427831,-0.2168,0.0534,0.0281,0.3394,1.2654,-9.7046,1.7533,7.1726,172.6141,0.0000,0.0000,0.0000,0.0000,0.0000,สาม
427947,-0.2089,0.0840,0.0495,0.2777,1.2432,-9.7495,1.7398,7.1817,172.6084,0.0000,0.0000,0.0000,0.0000,0.0000,สาม
428063,-0.2110,0.0619,-0.0195,0.2903,1.2241,-9.7382,1.7352,7.1797,172.6115,0.0000,0.0000,0.0000,0.0000,0.0000,สาม
428179,-0.2271,0.0859,0.0413,0.3029,1.2558,-9.7220,1.7387,7.1974,172.5934,0.0000,0.0000,0.0000,0.0000,0.0000,สาม
428295,-0.1862,0.0853,-0.0458,0.3232,1.1971,-9.6651,1.7548,7.1834,172.6031,0.0000,0.0000,0.0000,0.0000,0.0000,สาม
428411,-0.1483,0.0748,0.0687,0.3406,1.2175,-9.7537,1.7778,7.1761,172.6047,0.0000,0.0000,0.0000,0.0000,0.0000,สาม
428527,-0.1884,0.0378,-0.0395,0.3065,1.2313,-9.7058,1.7795,7.1811,172.5994,0.0000,0.0000,0.0000,0.0000,0.0000,สาม
428643,-0.2204,0.0875,-0.0174,0.2939,1.2953,-9.7298,1.7730,7.2211,172.5622,0.0000,0.0000,0.0000,0.0000,0.0000,สาม
428759,-0.2300,0.0986,0.0184,0.2993,1.2031,-9.7256,1.7706,7.2038,172.5795,0.0000,0.0000,0.0000,0.0000,0.0000,สาม
428875,-0.1680,0.0444,0.0312,0.3005,1.1523,-9.7477,1.7689,7.1572,172.6252,0.0000,0.0000,0.0000,0.0000,0.0000,สาม
428991,-0.1415,0.0553,-0.0194,0.3053,1.2205,-9.7549,1.7699,7.1543,172.6278,0.0000,0.0000,0.0000,0.0000,0.0000,สาม
429107,-0.2218,0.0980,0.0266,0.2819,1.2468,-9.7513,1.7571,7.1672,172.6183,0.0000,0.0000,0.0000,0.0000,0.0000,สาม
429223,-0.1735,0.0743,0.0252,0.3747,1.2277,-9.7118,1.8006,7.1704,172.6046,0.0000,0.0000,0.0000,0.0000,0.0000,สาม
429339,-0.2005,0.0852,0.0110,0.3418,1.1930,-9.7017,1.8207,7.1540,172.6156,0.0000,0.0000,0.0000,0.0000,0.0000,สาม
429455,-0.1704,0.0461,0.0228,0.3214,1.2528,-9.7453,1.8260,7.1708,172.5980,0.0000,0.0000,0.0000,0.0000,0.0000,สาม
429571,-0.2139,0.0712,-0.0158,0.2257,1.2235,-9.7052,1.7757,7.1721,172.6091,0.0000,0.0000,0.0000,0.0000,0.0000,สาม
429687,-0.1892,0.0828,0.0638,0.3358,1.2217,-9.7418,1.7940,7.1692,172.6074,0.0000,0.0000,0.0000,0.0000,0.0000,สาม
429803,-0.2307,0.0714,-0.0232,0.3178,1.2103,-9.7023,1.8008,7.1630,172.6118,0.0000,0.0000,0.0000,0.0000,0.0000,สาม
429919,-0.1819,0.0195,0.0684,0.2119,1.2528,-9.7070,1.7448,7.1820,172.6069,0.0000,0.0000,0.0000,0.0000,0.0000,สาม
430035,-0.1862,0.0578,0.0016,0.3963,1.2480,-9.7298,1.8017,7.1941,172.5814,0.0000,0.0000,0.0000,0.0000,0.0000,สาม
430151,-0.2109,0.0676,0.0703,0.3083,1.2277,-9.7489,1.8013,7.1921,172.5835,0.0000,0.0000,0.0000,0.0000,0.0000,สาม
430267,-0.2164,0.0648,0.0575,0.2735,1.1947,-9.7280,1.7810,7.1728,172.6071,0.0000,0.0000,0.0000,0.0000,0.0000,สาม
430383,-0.2068,0.0691,0.0101,0.1568,1.1762,-9.7238,1.6947,7.1452,172.6545,0.0000,0.0000,0.0000,0.0000,0.0000,สาม
430499,-0.1921,0.0868,0.0315,0.2430,1.2289,-9.7226,1.6673,7.1509,172.6553,0.0000,0.0000,0.0000,0.0000,0.0000,สาม
430615,-0.2297,0.0785,-0.0753,0.3328,1.2708,-9.7136,1.6952,7.1807,172.6199,0.0000,0.0000,0.0000,0.0000,0.0000,สาม
430731,-0.1944,0.0780,0.0822,0.3083,1.2247,-9.7130,1.7060,7.1809,172.6172,0.0000,0.0000,0.0000,0.0000,0.0000,สาม
430847,-0.2240,0.0447,0.0121,0.3490,1.2139,-9.7238,1.7393,7.1739,172.6161,0.0000,0.0000,0.0000,0.0000,0.0000,สาม
430963,-0.2074,0.0658,0.0042,0.2873,1.2504,-9.7328,1.7331,7.1883,172.6035,0.0000,0.0000,0.0000,0.0000,0.0000,สาม
431079,-0.2086,0.0506,0.0683,0.2957,1.2043,-9.7298,1.7326,7.1748,172.6169,0.0000,0.0000,0.0000,0.0000,0.0000,สาม
431195,-0.2142,0.0673,0.0339,0.2801,1.3767,-9.7507,1.7222,7.2610,172.5354,0.0000,0.0000,0.0000,0.0000,0.0000,สาม
431311,-0.2391,0.0915,-0.0135,0.3119,1.2025,-9.7232,1.7323,7.2396,172.5539,0.0000,0.0000,0.0000,0.0000,0.0000,สาม
431427,-0.2153,0.0908,-0.0067,0.2873,1.2295,-9.7286,1.7269,7.2356,172.5591,0.0000,0.0000,0.0000,0.0000,0.0000,สาม
431543,-0.1854,0.1010,0.0004,0.3172,1.2384,-9.7412,1.7393,7.2362,172.5555,0.0000,0.0000,0.0000,0.0000,0.0000,สาม
431659,-0.2049,0.1029,0.0149,0.3400,1.2420,-9.7442,1.7636,7.2385,172.5475,0.0000,0.0000,0.0000,0.0000,0.0000,สาม
431775,-0.1993,0.0717,0.0249,0.2891,1.2163,-9.7148,1.7564,7.2280,172.5594,0.0000,0.0000,0.0000,0.0000,0.0000,สาม
431891,-0.1939,0.0838,-0.0060,0.3328,1.2271,-9.7400,1.7750,7.2229,172.5600,0.0000,0.0000,0.0000,0.0000,0.0000,สาม
432007,-0.1870,0.0731,0.0074,0.2975,1.2408,-9.7370,1.7710,7.2265,172.5574,0.0000,0.0000,0.0000,0.0000,0.0000,สาม
432123,-0.1975,0.0744,0.0014,0.2951,1.2049,-9.7136,1.7666,7.2106,172.5739,0.0000,0.0000,0.0000,0.0000,0.0000,สาม
432239,-0.2020,0.0742,0.0209,0.3077,1.2259,-9.7304,1.7697,7.2073,172.5764,0.0000,0.0000,0.0000,0.0000,0.0000,สาม
432355,-0.1958,0.0798,-0.0447,0.2981,1.2181,-9.7436,1.7666,7.1988,172.5854,0.0000,0.0000,0.0000,0.0000,0.0000,สาม
432471,-0.2052,0.0590,-0.0100,0.3196,1.2235,-9.7208,1.7768,7.1959,172.5857,0.0000,0.0000,0.0000,0.0000,0.0000,สาม
432587,-0.1930,0.0927,-0.0108,0.3053,1.2151,-9.7160,1.7777,7.1888,172.5924,0.0000,0.0000,0.0000,0.0000,0.0000,สาม
432703,-0.1789,0.0369,0.0012,0.2795,1.2325,-9.7447,1.7629,7.1905,172.5944,0.0000,0.0000,0.0000,0.0000,0.0000,สาม
432819,-0.1560,0.0736,0.0420,0.4064,1.2301,-9.6939,1.8246,7.1940,172.5759,0.0000,0.0000,0.0000,0.0000,0.0000,สาม
432935,-0.1594,0.0908,-0.0319,0.2376,1.2349,-9.6975,1.7815,7.2001,172.5806,0.0000,0.0000,0.0000,0.0000,0.0000,สาม
433051,-0.2502,0.0979,0.0480,0.1137,1.2576,-9.6969,1.6703,7.2190,172.5883,0.0000,0.0000,0.0000,0.0000,0.0000,สาม
433167,-0.2551,0.1279,0.0277,0.4196,1.1678,-9.7250,1.7485,7.1813,172.6067,0.0000,0.0000,0.0000,0.0000,0.0000,สาม
433283,-0.1911,0.0521,0.0495,0.3597,1.1487,-9.7382,1.7838,7.1354,172.6427,0.0000,0.0000,0.0000,0.0000,0.0000,สาม
433399,-0.1877,0.0440,-0.0451,0.1700,1.1924,-9.7286,1.7048,7.1206,172.6761,0.0000,0.0000,0.0000,0.0000,0.0000,สาม
433515,-0.1753,0.0736,0.0818,0.3005,1.2343,-9.7184,1.7100,7.1320,172.6638,0.0000,0.0000,0.0000,0.0000,0.0000,สาม
433631,-0.2102,0.0789,0.0185,0.4819,1.1888,-9.7477,1.8202,7.1133,172.6552,0.0000,0.0000,0.0000,0.0000,0.0000,สาม
433747,-0.1877,0.0536,0.0004,0.1880,1.2732,-9.6861,1.7486,7.1506,172.6365,0.0000,0.0000,0.0000,0.0000,0.0000,สาม
433863,-0.1842,0.0543,0.0031,0.2969,1.1678,-9.7310,1.7473,7.1195,172.6670,0.0000,0.0000,0.0000,0.0000,0.0000,สาม
433979,-0.1900,0.0864,-0.0068,0.3729,1.1912,-9.7310,1.7904,7.1050,172.6707,0.0000,0.0000,0.0000,0.0000,0.0000,สาม
434095,-0.1835,0.0768,-0.0010,0.4513,1.2169,-9.7262,1.8751,7.1069,172.6474,0.0000,0.0000,0.0000,0.0000,0.0000,สาม
434211,-0.2082,0.0892,0.0379,0.2544,1.2414,-9.7112,1.8365,7.1245,172.6403,0.0000,0.0000,0.0000,0.0000,0.0000,สาม
434327,-0.1820,0.0834,-0.0076,0.3508,1.2169,-9.7076,1.8581,7.1261,172.6332,0.0000,0.0000,0.0000,0.0000,0.0000,สาม
434443,-0.2135,0.0754,0.0037,0.3107,1.2031,-9.7023,1.8543,7.1200,172.6401,0.0000,0.0000,0.0000,0.0000,0.0000,สาม
434559,-0.1939,0.0984,0.0123,0.2598,1.2145,-9.7483,1.8203,7.1179,172.6507,0.0000,0.0000,0.0000,0.0000,0.0000,สาม
434675,-0.2102,0.0713,0.0189,0.3125,1.1828,-9.7358,1.8207,7.0984,172.6694,0.0000,0.0000,0.0000,0.0000,0.0000,สาม
434791,-0.2065,0.0740,0.0293,0.2825,1.2247,-9.7340,1.8036,7.1054,172.6670,0.0000,0.0000,0.0000,0.0000,0.0000,สาม
434907,-0.2072,0.0746,-0.0128,0.3286,1.2863,-9.7352,1.8149,7.1472,172.6236,0.0000,0.0000,0.0000,0.0000,0.0000,สาม
435023,-0.1695,0.0778,0.0030,0.3657,1.1894,-9.7406,1.8469,7.1282,172.6340,0.0000,0.0000,0.0000,0.0000,0.0000,สาม
435139,-0.2217,0.0663,0.0215,0.2939,1.2271,-9.7070,1.8343,7.1355,172.6302,0.0000,0.0000,0.0000,0.0000,0.0000,สาม
435255,-0.1868,0.0645,0.0682,0.2987,1.1792,-9.7388,1.8253,7.1120,172.6552,0.0000,0.0000,0.0000,0.0000,0.0000,สาม
435371,-0.1778,0.0863,0.0105,0.3502,1.2145,-9.7280,1.8473,7.1120,172.6496,0.0000,0.0000,0.0000,0.0000,0.0000,สาม
435487,-0.1864,0.0743,0.0034,0.3035,1.2540,-9.7525,1.8393,7.1332,172.6311,0.0000,0.0000,0.0000,0.0000,0.0000,สาม
435603,-0.1902,0.0793,0.0128,0.3633,1.2450,-9.7220,1.8677,7.1491,172.6085,0.0000,0.0000,0.0000,0.0000,0.0000,สาม
435719,-0.2037,0.0667,0.0059,0.3095,1.2235,-9.7370,1.8615,7.1500,172.6091,0.0000,0.0000,0.0000,0.0000,0.0000,สาม
435835,-0.2106,0.0769,0.0435,0.3250,1.2175,-9.7076,1.8656,7.1495,172.6086,0.0000,0.0000,0.0000,0.0000,0.0000,สาม
435951,-0.1680,0.0716,0.0011,0.3382,1.2181,-9.7106,1.8770,7.1491,172.6061,0.0000,0.0000,0.0000,0.0000,0.0000,สาม
436067,-0.1930,0.0688,0.0094,0.3376,1.2253,-9.7262,1.8865,7.1518,172.6011,0.0000,0.0000,0.0000,0.0000,0.0000,สาม
436183,-0.2039,0.0924,0.0065,0.3107,1.2480,-9.6987,1.8798,7.1694,172.5857,0.0000,0.0000,0.0000,0.0000,0.0000,สาม
436299,-0.2495,0.0701,0.0470,0.2963,1.2612,-9.7585,1.8643,7.1886,172.5711,0.0000,0.0000,0.0000,0.0000,0.0000,สาม
436415,-0.2363,0.0807,-0.0026,0.2747,1.2139,-9.6969,1.8390,7.1831,172.5829,0.0000,0.0000,0.0000,0.0000,0.0000,สาม
436531,-0.2222,0.0768,0.0515,0.3125,1.2175,-9.7465,1.8373,7.1764,172.5897,0.0000,0.0000,0.0000,0.0000,0.0000,สาม
436647,-0.2380,0.0946,0.0251,0.3125,1.2217,-9.7232,1.8362,7.1745,172.5918,0.0000,0.0000,0.0000,0.0000,0.0000,สาม
436763,-0.2191,0.0915,-0.0237,0.2819,1.2223,-9.7663,1.8165,7.1702,172.6010,0.0000,0.0000,0.0000,0.0000,0.0000,สาม
436879,-0.2192,0.0720,0.0596,0.2819,1.2432,-9.7070,1.7999,7.1827,172.5929,0.0000,0.0000,0.0000,0.0000,0.0000,สาม
436995,-0.2453,0.1022,-0.0075,0.3921,1.2013,-9.7070,1.8494,7.1694,172.5935,0.0000,0.0000,0.0000,0.0000,0.0000,สาม
437111,-0.2219,0.0780,-0.0127,0.2418,1.2402,-9.6927,1.8063,7.1814,172.5926,0.0000,0.0000,0.0000,0.0000,0.0000,สาม
437227,-0.1994,0.0530,0.0294,0.3047,1.1780,-9.7154,1.8040,7.1543,172.6195,0.0000,0.0000,0.0000,0.0000,0.0000,สาม
437343,-0.2071,0.0800,-0.0393,0.3532,1.2145,-9.7274,1.8300,7.1501,172.6171,0.0000,0.0000,0.0000,0.0000,0.0000,สาม
437459,-0.2039,0.0769,0.0326,0.2287,1.2061,-9.7424,1.7803,7.1406,172.6385,0.0000,0.0000,0.0000,0.0000,0.0000,สาม
437575,-0.2128,0.0720,0.0063,0.3125,1.2073,-9.7310,1.7848,7.1334,172.6444,0.0000,0.0000,0.0000,0.0000,0.0000,สาม
437691,-0.1877,0.0502,-0.0714,0.3520,1.1630,-9.7274,1.8121,7.1015,172.6687,0.0000,0.0000,0.0000,0.0000,0.0000,สาม
437807,-0.2206,0.0684,0.0446,0.2532,1.2133,-9.7442,1.7785,7.1009,172.6776,0.0000,0.0000,0.0000,0.0000,0.0000,สาม
437923,-0.2239,0.0608,0.0104,0.2831,1.2319,-9.7166,1.7663,7.1130,172.6688,0.0000,0.0000,0.0000,0.0000,0.0000,สาม
438039,-0.2159,0.0671,-0.0367,0.3645,1.2229,-9.7304,1.8025,7.1175,172.6555,0.0000,0.0000,0.0000,0.0000,0.0000,สาม
438155,-0.2247,0.1063,0.0100,0.2867,1.2408,-9.7148,1.7900,7.1333,172.6432,0.0000,0.0000,0.0000,0.0000,0.0000,สาม
438271,-0.1996,0.0896,0.0537,0.3400,1.2031,-9.7106,1.8100,7.1259,172.6455,0.0000,0.0000,0.0000,0.0000,0.0000,สาม
438387,-0.2309,0.0549,0.0349,0.2789,1.2241,-9.7394,1.7917,7.1294,172.6467,0.0000,0.0000,0.0000,0.0000,0.0000,สาม
438503,-0.1952,0.0443,0.0335,0.2831,1.2055,-9.7418,1.7777,7.1216,172.6577,0.0000,0.0000,0.0000,0.0000,0.0000,สาม
438619,-0.1949,0.0898,-0.0215,0.2897,1.1995,-9.7280,1.7693,7.1121,172.6690,0.0000,0.0000,0.0000,0.0000,0.0000,สาม
438735,-0.1821,0.0796,0.0067,0.3370,1.2079,-9.7358,1.7891,7.1077,172.6684,0.0000,0.0000,0.0000,0.0000,0.0000,สาม
438851,-0.2217,0.0845,-0.0348,0.2987,1.2486,-9.7310,1.7846,7.1278,172.6500,0.0000,0.0000,0.0000,0.0000,0.0000,สาม
438967,-0.1842,0.0770,0.0041,0.3460,1.1995,-9.7543,1.8078,7.1156,172.6560,0.0000,0.0000,0.0000,0.0000,0.0000,สาม
439083,-0.1997,0.0607,-0.0269,0.2628,1.2319,-9.7250,1.7806,7.1257,172.6530,0.0000,0.0000,0.0000,0.0000,0.0000,สาม
439199,-0.2084,0.0904,0.0204,0.2646,1.2378,-9.7489,1.7567,7.1365,172.6483,0.0000,0.0000,0.0000,0.0000,0.0000,สาม
439315,-0.1903,0.0864,-0.0414,0.3460,1.1588,-9.7328,1.7832,7.1015,172.6758,0.0000,0.0000,0.0000,0.0000,0.0000,สาม
439431,-0.2038,0.0502,-0.0371,0.2813,1.2037,-9.7286,1.7692,7.0964,172.6842,0.0000,0.0000,0.0000,0.0000,0.0000,สาม
439547,-0.1636,0.0575,-0.0727,0.3065,1.2127,-9.7627,1.7707,7.0945,172.6857,0.0000,0.0000,0.0000,0.0000,0.0000,สาม
439663,-0.1898,0.0868,0.0218,0.3316,1.2163,-9.7160,1.7876,7.0982,172.6779,0.0000,0.0000,0.0000,0.0000,0.0000,สาม
439779,-0.2052,0.0923,-0.0444,0.2879,1.1822,-9.7064,1.7775,7.0825,172.6956,0.0000,0.0000,0.0000,0.0000,0.0000,สาม
439895,-0.1853,0.0823,-0.0199,0.2909,1.2223,-9.7154,1.7700,7.0910,172.6893,0.0000,0.0000,0.0000,0.0000,0.0000,สาม
440011,-0.1764,0.0787,0.0003,0.4034,1.2672,-9.6873,1.8293,7.1264,172.6402,0.0000,0.0000,0.0000,0.0000,0.0000,สาม
440127,-0.2087,0.0917,0.0153,0.3256,1.2654,-9.7136,1.8367,7.1556,172.6101,0.0000,0.0000,0.0000,0.0000,0.0000,สาม
440243,-0.2234,0.0939,0.0215,0.3232,1.2660,-9.7459,1.8414,7.1798,172.5854,0.0000,0.0000,0.0000,0.0000,0.0000,สาม
440359,-0.1877,0.0817,0.0154,0.3448,1.2115,-9.7609,1.8581,7.1689,172.5918,0.0000,0.0000,0.0000,0.0000,0.0000,สาม
440475,-0.2037,0.0788,0.0279,0.3125,1.1756,-9.7669,1.8542,7.1379,172.6228,0.0000,0.0000,0.0000,0.0000,0.0000,สาม
440591,-0.2059,0.0479,0.0534,0.2825,1.2259,-9.7495,1.8334,7.1405,172.6255,0.0000,0.0000,0.0000,0.0000,0.0000,สาม
440707,-0.1816,0.0830,0.0168,0.3095,1.1924,-9.7513,1.8305,7.1232,172.6430,0.0000,0.0000,0.0000,0.0000,0.0000,สาม
440823,-0.1740,0.0742,-0.0183,0.3687,1.2121,-9.7250,1.8629,7.1208,172.6371,0.0000,0.0000,0.0000,0.0000,0.0000,สาม
440939,-0.1786,0.0894,-0.0673,0.3214,1.2462,-9.7436,1.8640,7.1372,172.6209,0.0000,0.0000,0.0000,0.0000,0.0000,สาม
441055,-0.2168,0.0368,-0.0044,0.2610,1.2331,-9.7172,1.8303,7.1464,172.6205,0.0000,0.0000,0.0000,0.0000,0.0000,สาม
441171,-0.1821,0.0795,-0.0528,0.3490,1.2462,-9.7220,1.8512,7.1618,172.6004,0.0000,0.0000,0.0000,0.0000,0.0000,สาม
441287,-0.2217,0.0841,0.0397,0.2969,1.2462,-9.7226,1.8396,7.1757,172.5898,0.0000,0.0000,0.0000,0.0000,0.0000,สาม
441403,-0.2249,0.0808,0.0560,0.3125,1.2019,-9.7465,1.8378,7.1608,172.6048,0.0000,0.0000,0.0000,0.0000,0.0000,สาม
441519,-0.2155,0.0768,-0.0657,0.2035,1.2241,-9.7430,1.7727,7.1607,172.6209,0.0000,0.0000,0.0000,0.0000,0.0000,สาม
441635,-0.2275,0.0675,0.0421,0.3143,1.1953,-9.7064,1.7795,7.1463,172.6332,0.0000,0.0000,0.0000,0.0000,0.0000,สาม
441751,-0.2256,0.0834,-0.0552,0.4106,1.2504,-9.7729,1.8405,7.1603,172.6046,0.0000,0.0000,0.0000,0.0000,0.0000,สาม
441867,-0.3036,0.0518,0.0057,0.1927,1.1708,-9.7633,1.7686,7.1280,172.6537,0.0000,0.0000,0.0000,0.0000,0.0000,สาม
441983,-0.2063,0.0845,0.0225,0.0269,1.1558,-9.7412,1.6076,7.0921,172.7261,0.0000,0.0000,0.0000,0.0000,0.0000,สาม
442099,-0.1719,0.0618,-0.0743,0.4208,1.2025,-9.7292,1.6926,7.0869,172.7117,0.0000,0.0000,0.0000,0.0000,0.0000,สาม
442215,-0.2003,0.0727,0.0361,0.3250,1.2564,-9.7100,1.7134,7.1151,172.6795,0.0000,0.0000,0.0000,0.0000,0.0000,สาม
442331,-0.2206,0.0939,0.0019,0.2903,1.1852,-9.7346,1.7117,7.0974,172.6970,0.0000,0.0000,0.0000,0.0000,0.0000,สาม
442447,-0.2897,0.0693,-0.0529,0.2628,1.1211,-9.7382,1.6941,7.0442,172.7529,0.0000,0.0000,0.0000,0.0000,0.0000,สาม
442563,-0.0793,0.0237,0.0455,0.2418,0.9110,-9.7603,1.6661,6.8730,172.9260,0.0000,0.0000,0.0000,0.0000,0.0000,สาม
442679,-0.1160,0.0469,0.0184,0.2598,1.2259,-9.7346,1.6511,6.9032,172.9002,0.0000,0.0000,0.0000,0.0000,0.0000,สาม
442795,-0.1618,0.0866,0.0354,0.3292,1.3145,-9.6993,1.6786,6.9841,172.8150,0.0000,0.0000,0.0000,0.0000,0.0000,สาม
442911,-0.2283,0.0813,0.0454,0.3466,1.2055,-9.7352,1.7131,6.9912,172.7999,0.0000,0.0000,0.0000,0.0000,0.0000,สาม
443027,-0.2266,0.0648,0.0256,0.2879,1.2151,-9.7280,1.7100,7.0037,172.7885,0.0000,0.0000,0.0000,0.0000,0.0000,สาม
443143,-0.1988,0.0826,-0.0125,0.3651,1.1780,-9.7346,1.7523,6.9929,172.7888,0.0000,0.0000,0.0000,0.0000,0.0000,สาม
443259,-0.2260,0.0789,-0.0339,0.3017,1.2283,-9.7166,1.7535,7.0137,172.7683,0.0000,0.0000,0.0000,0.0000,0.0000,สาม
443375,-0.1823,0.0912,0.0536,0.3232,1.1798,-9.7106,1.7674,7.0047,172.7736,0.0000,0.0000,0.0000,0.0000,0.0000,สาม
443491,-0.2109,0.0698,-0.0544,0.3472,1.2187,-9.7023,1.7939,7.0197,172.7525,0.0000,0.0000,0.0000,0.0000,0.0000,สาม
443607,-0.2232,0.0757,0.0480,0.2795,1.2079,-9.7136,1.7781,7.0262,172.7500,0.0000,0.0000,0.0000,0.0000,0.0000,สาม
443723,-0.2170,0.0823,-0.0552,0.3322,1.2025,-9.7202,1.7946,7.0285,172.7438,0.0000,0.0000,0.0000,0.0000,0.0000,สาม
443839,-0.2079,0.0494,0.0544,0.3107,1.2223,-9.7280,1.7966,7.0414,172.7308,0.0000,0.0000,0.0000,0.0000,0.0000,สาม
443955,-0.2086,0.0856,0.0638,0.3184,1.3779,-9.7220,1.8027,7.1437,172.6300,0.0000,0.0000,0.0000,0.0000,0.0000,สาม
444071,-0.2605,0.0957,0.0308,0.3567,1.2091,-9.7070,1.8313,7.1389,172.6276,0.0000,0.0000,0.0000,0.0000,0.0000,สาม
444187,-0.2412,0.0673,-0.0037,0.4118,1.1666,-9.7160,1.8891,7.1092,172.6416,0.0000,0.0000,0.0000,0.0000,0.0000,สาม
444303,-0.2282,0.0419,0.0624,0.2466,1.2785,-9.6897,1.8448,7.1496,172.6138,0.0000,0.0000,0.0000,0.0000,0.0000,สาม
444419,-0.2003,0.0815,0.0404,0.3777,1.2121,-9.7465,1.8806,7.1430,172.6111,0.0000,0.0000,0.0000,0.0000,0.0000,สาม
444535,-0.1932,0.0912,-0.0267,0.4064,1.1475,-9.8297,1.9282,7.0935,172.6465,0.0000,0.0000,0.0000,0.0000,0.0000,สาม
444651,-0.1757,0.0803,-0.0059,0.5645,1.2349,-9.7777,2.0639,7.1030,172.6003,0.0000,0.0000,0.0000,0.0000,0.0000,สาม
444767,-0.3771,0.0942,0.0115,-0.0593,1.1391,-9.7418,1.8232,7.0602,172.7058,0.0000,0.0000,0.0000,0.0000,0.0000,สาม
444883,-0.2477,0.0547,0.0289,0.3202,1.1971,-9.7412,1.8277,7.0545,172.7103,0.0000,0.0000,0.0000,0.0000,0.0000,สาม
444999,-0.1746,0.0971,-0.0266,0.5579,1.1038,-9.6633,1.9722,7.0001,172.7247,0.0000,0.0000,0.0000,0.0000,0.0000,สาม
445115,-0.2364,0.0881,-0.0038,0.0245,1.1959,-9.6633,1.7907,7.0059,172.7666,0.0000,0.0000,0.0000,0.0000,0.0000,สาม
445231,-0.1542,0.0333,0.0057,0.2227,1.2474,-9.7555,1.7412,7.0339,172.7517,0.0000,0.0000,0.0000,0.0000,0.0000,สาม
445347,-0.2176,0.0668,-0.0074,0.4866,1.1726,-9.6993,1.8520,7.0192,172.7383,0.0000,0.0000,0.0000,0.0000,0.0000,สาม
445463,-0.1997,0.0619,0.0063,0.2957,1.2067,-9.7334,1.8394,7.0237,172.7371,0.0000,0.0000,0.0000,0.0000,0.0000,สาม
445579,-0.2074,0.0575,-0.0335,0.1832,1.0768,-9.7388,1.7626,6.9522,172.8257,0.0000,0.0000,0.0000,0.0000,0.0000,สาม
445695,-0.2082,0.0609,0.0348,0.1945,1.2720,-9.6915,1.7005,7.0045,172.7900,0.0000,0.0000,0.0000,0.0000,0.0000,สาม
445811,-0.1828,0.0901,-0.0608,0.4441,1.2019,-9.6783,1.7909,7.0113,172.7614,0.0000,0.0000,0.0000,0.0000,0.0000,สาม
445927,-0.1919,0.0859,-0.0376,0.3358,1.2654,-9.7729,1.8071,7.0477,172.7220,0.0000,0.0000,0.0000,0.0000,0.0000,สาม
446043,-0.2183,0.1029,-0.0110,0.1957,1.2295,-9.7244,1.7408,7.0634,172.7231,0.0000,0.0000,0.0000,0.0000,0.0000,สาม
446159,-0.1937,0.0962,-0.0233,0.3562,1.2007,-9.7005,1.7753,7.0622,172.7159,0.0000,0.0000,0.0000,0.0000,0.0000,สาม
446275,-0.2405,0.1193,-0.0277,0.4501,1.1930,-9.7663,1.8601,7.0517,172.7047,0.0000,0.0000,0.0000,0.0000,0.0000,สาม
446391,-0.1970,0.0937,0.0359,0.2508,1.2265,-9.7250,1.8207,7.0651,172.7018,0.0000,0.0000,0.0000,0.0000,0.0000,สาม
446507,-0.2078,0.0813,0.0592,0.3627,1.2073,-9.7340,1.8504,7.0652,172.6942,0.0000,0.0000,0.0000,0.0000,0.0000,สาม
446623,-0.2286,0.0581,0.0226,0.3759,1.1678,-9.7118,1.8854,7.0439,172.7057,0.0000,0.0000,0.0000,0.0000,0.0000,สาม
446739,-0.2059,0.0804,-0.0214,0.2442,1.2672,-9.6807,1.8403,7.0849,172.6777,0.0000,0.0000,0.0000,0.0000,0.0000,สาม
446855,-0.2446,0.0947,0.0442,0.2382,1.2241,-9.7507,1.7950,7.0917,172.6824,0.0000,0.0000,0.0000,0.0000,0.0000,สาม
446971,-0.2060,0.0913,0.0124,0.3819,1.2157,-9.7286,1.8386,7.0943,172.6689,0.0000,0.0000,0.0000,0.0000,0.0000,สาม
447087,-0.1944,0.0601,0.0616,0.3131,1.1983,-9.7172,1.8379,7.0876,172.6757,0.0000,0.0000,0.0000,0.0000,0.0000,สาม
447203,-0.1771,0.0748,-0.0379,0.2706,1.2289,-9.7322,1.8121,7.0982,172.6718,0.0000,0.0000,0.0000,0.0000,0.0000,สาม
447319,-0.2044,0.0721,0.0161,0.3538,1.1840,-9.6993,1.8381,7.0839,172.6791,0.0000,0.0000,0.0000,0.0000,0.0000,สาม
447435,-0.1812,0.0858,0.0379,0.3089,1.1708,-9.7280,1.8349,7.0615,172.7017,0.0000,0.0000,0.0000,0.0000,0.0000,สาม
447551,-0.1970,0.0583,0.0588,0.2921,1.1774,-9.7220,1.8222,7.0455,172.7203,0.0000,0.0000,0.0000,0.0000,0.0000,สาม
447667,-0.2018,0.0665,-0.0180,0.3262,1.2103,-9.7513,1.8302,7.0481,172.7158,0.0000,0.0000,0.0000,0.0000,0.0000,สาม
447783,-0.2048,0.0720,0.0029,0.2897,1.2091,-9.7555,1.8159,7.0495,172.7180,0.0000,0.0000,0.0000,0.0000,0.0000,สาม
447899,-0.1828,0.0740,0.0519,0.2987,1.2181,-9.7591,1.8083,7.0557,172.7139,0.0000,0.0000,0.0000,0.0000,0.0000,สาม
448015,-0.1962,0.0489,-0.0275,0.2831,1.1852,-9.7196,1.7931,7.0451,172.7281,0.0000,0.0000,0.0000,0.0000,0.0000,สาม
448131,-0.2093,0.0663,0.0180,0.3310,1.2109,-9.6933,1.8078,7.0522,172.7175,0.0000,0.0000,0.0000,0.0000,0.0000,สาม
448247,-0.1744,0.0694,0.0421,0.3621,1.1965,-9.7280,1.8386,7.0477,172.7140,0.0000,0.0000,0.0000,0.0000,0.0000,สาม
448363,-0.1310,0.0713,-0.0164,0.2688,1.3145,-9.6753,1.8125,7.1161,172.6544,0.0000,0.0000,0.0000,0.0000,0.0000,สาม
448479,-0.3832,0.1261,0.0389,0.2777,1.4479,-9.7424,1.7928,7.2501,172.5292,0.0000,0.0000,0.0000,0.0000,0.0000,สาม
448595,-0.2725,0.0808,0.0327,0.3939,1.1325,-9.7244,1.8438,7.1889,172.5759,0.0000,0.0000,0.0000,0.0000,0.0000,สาม
448711,-0.1427,0.1129,0.0558,0.2191,1.1313,-9.7076,1.7880,7.1348,172.6423,0.0000,0.0000,0.0000,0.0000,0.0000,สาม
448827,-0.1299,0.0649,0.0174,0.3711,1.2235,-9.7771,1.8251,7.1341,172.6338,0.0000,0.0000,0.0000,0.0000,0.0000,สาม
448943,-0.1846,0.0684,-0.0402,0.3759,1.2863,-9.7154,1.8623,7.1743,172.5854,0.0000,0.0000,0.0000,0.0000,0.0000,สาม
449059,-0.2331,0.1202,-0.0778,0.2735,1.2678,-9.7789,1.8348,7.1954,172.5719,0.0000,0.0000,0.0000,0.0000,0.0000,สาม
449175,-0.2196,0.0589,0.0814,0.3831,1.1744,-9.7286,1.8752,7.1637,172.5925,0.0000,0.0000,0.0000,0.0000,0.0000,สาม
449291,-0.2146,0.0784,-0.0123,0.2789,1.1121,-9.7711,1.8501,7.0963,172.6641,0.0000,0.0000,0.0000,0.0000,0.0000,สาม
449407,-0.1870,0.0359,0.0046,0.2640,1.2007,-9.7639,1.8187,7.0875,172.6806,0.0000,0.0000,0.0000,0.0000,0.0000,สาม
449523,-0.3051,0.0849,-0.0194,0.0227,1.1271,-9.7304,1.6505,7.0398,172.7674,0.0000,0.0000,0.0000,0.0000,0.0000,สาม
449639,-0.0698,0.0886,0.0273,0.4543,1.0726,-9.7166,1.7513,6.9654,172.8157,0.0000,0.0000,0.0000,0.0000,0.0000,สาม
449755,-0.0877,0.0630,-0.0867,0.6297,1.1822,-9.7160,1.9442,6.9615,172.7695,0.0000,0.0000,0.0000,0.0000,0.0000,สาม
449871,-0.1966,0.0646,-0.0251,0.0826,1.4240,-9.6879,1.7984,7.1015,172.6721,0.0000,0.0000,0.0000,0.0000,0.0000,สาม
449987,-0.2737,0.0731,0.0089,0.2718,1.2247,-9.7076,1.7777,7.1101,172.6688,0.0000,0.0000,0.0000,0.0000,0.0000,สาม
450103,-0.2780,0.0894,0.0279,0.3567,1.2809,-9.7106,1.8085,7.1500,172.6225,0.0000,0.0000,0.0000,0.0000,0.0000,สาม
450219,-0.2649,0.0180,-0.0334,0.3490,1.1427,-9.7627,1.8310,7.1020,172.6634,0.0000,0.0000,0.0000,0.0000,0.0000,สาม
450335,-0.0943,0.2255,0.1224,0.2035,1.2019,-9.8214,1.7652,7.0893,172.6920,0.0000,0.0000,0.0000,0.0000,0.0000,สาม
450451,-0.1572,0.1106,-0.0877,0.7464,1.1229,-9.6915,2.0254,7.0402,172.6714,0.0000,0.0000,0.0000,0.0000,0.0000,สาม
450567,-0.2049,0.0716,0.0004,-0.1149,1.3935,-9.7112,1.7559,7.1534,172.6321,0.0000,0.0000,0.0000,0.0000,0.0000,สาม
450683,-0.3217,0.0273,0.0476,0.5226,0.6028,-9.9710,1.8822,6.7774,172.9637,0.0000,0.0000,0.0000,0.0000,0.0000,สาม
450799,-0.0949,-0.0304,-0.1303,0.2251,1.2510,-9.7489,1.8252,6.8307,172.9274,0.0000,0.0000,0.0000,0.0000,0.0000,สาม
450915,-0.1399,0.0289,0.0476,0.3292,1.2355,-9.7645,1.8343,6.8684,172.8886,0.0000,0.0000,0.0000,0.0000,0.0000,สาม
451031,-0.2056,0.0646,-0.0338,0.4220,1.1373,-9.7202,1.8975,6.8484,172.8911,0.0000,0.0000,0.0000,0.0000,0.0000,สาม
451147,-0.2030,0.0642,0.0449,0.0210,1.3085,-9.7011,1.7207,6.9317,172.8559,0.0000,0.0000,0.0000,0.0000,0.0000,สาม
451263,-0.1746,0.0660,0.0083,0.4747,1.1313,-9.7525,1.8255,6.8995,172.8608,0.0000,0.0000,0.0000,0.0000,0.0000,สาม
451379,-0.2116,0.0277,0.0173,0.3406,1.2325,-9.7046,1.8423,6.9328,172.8242,0.0000,0.0000,0.0000,0.0000,0.0000,สาม
451495,-0.2038,0.0514,0.0018,0.2484,1.2797,-9.7465,1.8028,6.9874,172.7815,0.0000,0.0000,0.0000,0.0000,0.0000,สาม
451611,-0.2573,0.0579,-0.0207,0.3645,1.1858,-9.7376,1.8353,6.9825,172.7780,0.0000,0.0000,0.0000,0.0000,0.0000,สาม
451727,-0.2202,0.0793,0.0900,0.2227,1.2887,-9.7388,1.7816,7.0379,172.7379,0.0000,0.0000,0.0000,0.0000,0.0000,สาม
451843,-0.2462,0.0474,-0.0125,0.3843,1.1247,-9.7477,1.8277,6.9918,172.7709,0.0000,0.0000,0.0000,0.0000,0.0000,สาม
451959,-0.1999,0.0541,0.1078,0.2370,1.2396,-9.7663,1.7828,7.0159,172.7589,0.0000,0.0000,0.0000,0.0000,0.0000,สาม
452075,-0.1626,0.0819,-0.0136,0.2903,1.1750,-9.7250,1.7743,7.0029,172.7736,0.0000,0.0000,0.0000,0.0000,0.0000,สาม
452191,-0.2014,0.0601,-0.0271,0.3172,1.2193,-9.7597,1.7816,7.0144,172.7607,0.0000,0.0000,0.0000,0.0000,0.0000,สาม
452307,-0.2030,0.0813,-0.0318,0.2969,1.2444,-9.7244,1.7769,7.0418,172.7352,0.0000,0.0000,0.0000,0.0000,0.0000,สาม
452423,-0.2003,0.0465,0.0369,0.3125,1.2091,-9.6957,1.7823,7.0481,172.7278,0.0000,0.0000,0.0000,0.0000,0.0000,สาม
452539,-0.1858,0.0694,0.0089,0.2807,1.2223,-9.7471,1.7678,7.0578,172.7220,0.0000,0.0000,0.0000,0.0000,0.0000,สาม
452655,-0.1982,0.0682,0.0243,0.3831,1.2205,-9.7304,1.8147,7.0664,172.7020,0.0000,0.0000,0.0000,0.0000,0.0000,สาม
452771,-0.1919,0.0686,0.0074,0.2963,1.2540,-9.7585,1.8057,7.0917,172.6797,0.0000,0.0000,0.0000,0.0000,0.0000,สาม
452887,-0.2169,0.0716,-0.0615,0.3208,1.2163,-9.7154,1.8128,7.0958,172.6740,0.0000,0.0000,0.0000,0.0000,0.0000,สาม
453003,-0.2012,0.0615,0.0443,0.2963,1.1840,-9.7118,1.8050,7.0810,172.6903,0.0000,0.0000,0.0000,0.0000,0.0000,สาม
453119,-0.1727,0.0585,-0.0072,0.3466,1.2396,-9.7549,1.8264,7.0967,172.6697,0.0000,0.0000,0.0000,0.0000,0.0000,สาม
453235,-0.1832,0.0693,0.0113,0.3029,1.1876,-9.7376,1.8206,7.0820,172.6854,0.0000,0.0000,0.0000,0.0000,0.0000,สาม
453351,-0.1693,0.0525,0.0356,0.3143,1.2223,-9.7226,1.8222,7.0900,172.6773,0.0000,0.0000,0.0000,0.0000,0.0000,สาม
453467,-0.1847,0.0687,-0.0072,0.2969,1.2528,-9.7005,1.8139,7.1165,172.6537,0.0000,0.0000,0.0000,0.0000,0.0000,สาม
453583,-0.2159,0.0898,-0.0300,0.3442,1.2582,-9.7136,1.8337,7.1424,172.6236,0.0000,0.0000,0.0000,0.0000,0.0000,สาม
453699,-0.2117,0.0885,0.0286,0.3148,1.2337,-9.7160,1.8345,7.1514,172.6147,0.0000,0.0000,0.0000,0.0000,0.0000,สาม
453815,-0.2414,0.1014,0.0053,0.3113,1.2552,-9.7214,1.8329,7.1716,172.5955,0.0000,0.0000,0.0000,0.0000,0.0000,สาม
453931,-0.2164,0.1228,0.0044,0.3496,1.2121,-9.7382,1.8536,7.1635,172.5981,0.0000,0.0000,0.0000,0.0000,0.0000,สาม
454047,-0.1854,0.0847,0.0034,0.3011,1.2289,-9.7424,1.8439,7.1657,172.5984,0.0000,0.0000,0.0000,0.0000,0.0000,สาม
454163,-0.2072,0.0420,0.0211,0.3071,1.2169,-9.7220,1.8390,7.1622,172.6030,0.0000,0.0000,0.0000,0.0000,0.0000,สาม
454279,-0.2034,0.0419,-0.0330,0.3047,1.2007,-9.7555,1.8326,7.1473,172.6191,0.0000,0.0000,0.0000,0.0000,0.0000,สาม
454395,-0.1881,0.0862,-0.0412,0.3035,1.2540,-9.7471,1.8262,7.1654,172.6032,0.0000,0.0000,0.0000,0.0000,0.0000,สาม
454511,-0.1988,0.0810,0.0484,0.3131,1.2343,-9.7292,1.8265,7.1715,172.5972,0.0000,0.0000,0.0000,0.0000,0.0000,สาม
454627,-0.2155,0.0485,-0.0115,0.3597,1.2073,-9.7238,1.8540,7.1616,172.5998,0.0000,0.0000,0.0000,0.0000,0.0000,สาม
454743,-0.1846,0.0699,-0.0571,0.2586,1.1648,-9.7142,1.8201,7.1291,172.6399,0.0000,0.0000,0.0000,0.0000,0.0000,สาม
454859,-0.2157,0.0769,0.0115,0.2903,1.2163,-9.7388,1.8075,7.1278,172.6443,0.0000,0.0000,0.0000,0.0000,0.0000,สาม
454975,-0.1812,0.0545,0.0398,0.3412,1.2085,-9.7442,1.8258,7.1216,172.6458,0.0000,0.0000,0.0000,0.0000,0.0000,สาม
455091,-0.2084,0.0826,0.0421,0.3430,1.2025,-9.7442,1.8433,7.1125,172.6501,0.0000,0.0000,0.0000,0.0000,0.0000,สาม
455207,-0.2232,0.0927,0.0230,0.2670,1.2109,-9.6975,1.8156,7.1127,172.6569,0.0000,0.0000,0.0000,0.0000,0.0000,สาม
455323,-0.2275,0.0867,0.0016,0.1712,1.2181,-9.7424,1.7338,7.1141,172.6755,0.0000,0.0000,0.0000,0.0000,0.0000,สาม
455439,-0.2154,0.0977,-0.0158,0.3502,1.2103,-9.7160,1.7652,7.1123,172.6697,0.0000,0.0000,0.0000,0.0000,0.0000,สาม
455555,-0.1834,0.0847,0.0249,0.3376,1.2055,-9.7699,1.7852,7.1041,172.6728,0.0000,0.0000,0.0000,0.0000,0.0000,สาม
455671,-0.1962,0.0663,0.0059,0.2209,1.2504,-9.7424,1.7354,7.1249,172.6647,0.0000,0.0000,0.0000,0.0000,0.0000,สาม
455787,-0.1985,0.0819,-0.0472,0.3813,1.1385,-9.7537,1.7843,7.0776,172.6987,0.0000,0.0000,0.0000,0.0000,0.0000,สาม
455903,-0.1934,0.0519,0.0179,0.2855,1.2498,-9.6765,1.7736,7.1054,172.6744,0.0000,0.0000,0.0000,0.0000,0.0000,สาม
456019,-0.2034,0.0706,0.0145,0.3382,1.1876,-9.6873,1.7946,7.0934,172.6809,0.0000,0.0000,0.0000,0.0000,0.0000,สาม
456135,-0.1956,0.0747,0.0198,0.3370,1.2355,-9.7154,1.8122,7.1083,172.6620,0.0000,0.0000,0.0000,0.0000,0.0000,สาม
456251,-0.2019,0.0859,-0.0668,0.2376,1.2049,-9.6921,1.7705,7.1060,172.6746,0.0000,0.0000,0.0000,0.0000,0.0000,สาม
456367,-0.2379,0.0496,0.0390,0.3520,1.1959,-9.7501,1.7987,7.0942,172.6791,0.0000,0.0000,0.0000,0.0000,0.0000,สาม
456483,-0.2247,0.0718,-0.0155,0.3729,1.2109,-9.7388,1.8365,7.0930,172.6707,0.0000,0.0000,0.0000,0.0000,0.0000,สาม
456599,-0.2102,0.0743,0.0123,0.2712,1.2247,-9.7292,1.8112,7.1009,172.6694,0.0000,0.0000,0.0000,0.0000,0.0000,สาม
456715,-0.2431,0.0859,-0.0255,0.2885,1.2205,-9.7166,1.7989,7.1064,172.6671,0.0000,0.0000,0.0000,0.0000,0.0000,สาม
456831,-0.2069,0.0735,-0.0070,0.3400,1.2073,-9.7519,1.8172,7.1011,172.6677,0.0000,0.0000,0.0000,0.0000,0.0000,สาม
456947,-0.2035,0.0744,-0.0305,0.3196,1.2253,-9.7178,1.8224,7.1092,172.6586,0.0000,0.0000,0.0000,0.0000,0.0000,สาม
457063,-0.1952,0.0817,-0.0271,0.2927,1.2678,-9.7400,1.8108,7.1396,172.6320,0.0000,0.0000,0.0000,0.0000,0.0000,สาม
457179,-0.2436,0.0830,0.0124,0.2741,1.2283,-9.7238,1.7900,7.1453,172.6316,0.0000,0.0000,0.0000,0.0000,0.0000,สาม
457295,-0.1640,0.0354,-0.0183,0.3789,1.1792,-9.7573,1.8318,7.1193,172.6464,0.0000,0.0000,0.0000,0.0000,0.0000,สาม
457411,-0.1911,0.0499,-0.0079,0.3125,1.2205,-9.7280,1.8312,7.1221,172.6439,0.0000,0.0000,0.0000,0.0000,0.0000,สาม
457527,-0.1974,0.0364,-0.0267,0.2287,1.1912,-9.7208,1.7819,7.1084,172.6695,0.0000,0.0000,0.0000,0.0000,0.0000,สาม
457643,-0.1823,0.0747,-0.0386,0.3861,1.2205,-9.7483,1.8288,7.1106,172.6556,0.0000,0.0000,0.0000,0.0000,0.0000,สาม
457759,-0.1854,0.0386,0.0222,0.3903,1.1906,-9.7142,1.8742,7.0978,172.6565,0.0000,0.0000,0.0000,0.0000,0.0000,สาม
457875,-0.2245,0.0871,-0.0060,0.2275,1.2474,-9.7190,1.8198,7.1192,172.6496,0.0000,0.0000,0.0000,0.0000,0.0000,สาม
457991,-0.2084,0.0872,0.0050,0.2975,1.2355,-9.7011,1.8121,7.1327,172.6384,0.0000,0.0000,0.0000,0.0000,0.0000,สาม
458107,-0.2106,0.0763,0.0157,0.3621,1.2277,-9.7561,1.8419,7.1362,172.6276,0.0000,0.0000,0.0000,0.0000,0.0000,สาม
458223,-0.2044,0.0538,0.0577,0.3005,1.2187,-9.7232,1.8334,7.1366,172.6293,0.0000,0.0000,0.0000,0.0000,0.0000,สาม
458339,-0.1975,0.0687,0.0109,0.2640,1.2319,-9.7675,1.8035,7.1415,172.6320,0.0000,0.0000,0.0000,0.0000,0.0000,สาม
458455,-0.2207,0.0698,-0.0323,0.3538,1.2402,-9.7166,1.8300,7.1543,172.6130,0.0000,0.0000,0.0000,0.0000,0.0000,สาม
458571,-0.1932,0.0791,-0.0016,0.3843,1.1768,-9.7358,1.8714,7.1276,172.6284,0.0000,0.0000,0.0000,0.0000,0.0000,สาม
458687,-0.1388,0.0763,-0.0323,0.2059,1.2013,-9.7543,1.8042,7.1168,172.6558,0.0000,0.0000,0.0000,0.0000,0.0000,สาม
458803,-0.1967,0.0750,-0.0275,0.3274,1.1858,-9.7250,1.8151,7.0999,172.6694,0.0000,0.0000,0.0000,0.0000,0.0000,สาม
458919,-0.1892,0.0504,0.0150,0.1748,1.2109,-9.7184,1.7360,7.1001,172.6886,0.0000,0.0000,0.0000,0.0000,0.0000,สาม
459035,-0.2116,0.0522,-0.0128,0.2718,1.2199,-9.7244,1.7212,7.1048,172.6875,0.0000,0.0000,0.0000,0.0000,0.0000,สาม
459151,-0.1881,0.0710,0.0068,0.3933,1.2349,-9.7388,1.7786,7.1165,172.6624,0.0000,0.0000,0.0000,0.0000,0.0000,สาม
459267,-0.2001,0.0758,-0.0200,0.2610,1.2337,-9.7023,1.7537,7.1292,172.6561,0.0000,0.0000,0.0000,0.0000,0.0000,สาม
459383,-0.2101,0.0543,0.0027,0.3645,1.1714,-9.7388,1.7911,7.1016,172.6737,0.0000,0.0000,0.0000,0.0000,0.0000,สาม
459499,-0.1984,0.0728,-0.0342,0.3095,1.0738,-9.7310,1.7931,7.0210,172.7514,0.0000,0.0000,0.0000,0.0000,0.0000,สาม
459615,-0.2105,0.0695,0.0086,0.3113,1.2079,-9.7310,1.7956,7.0261,172.7458,0.0000,0.0000,0.0000,0.0000,0.0000,สาม
459731,-0.2128,0.0671,-0.0893,0.2652,1.1858,-9.7058,1.7714,7.0198,172.7579,0.0000,0.0000,0.0000,0.0000,0.0000,สาม
459847,-0.1689,0.0590,-0.0319,0.3244,1.1882,-9.7436,1.7836,7.0127,172.7618,0.0000,0.0000,0.0000,0.0000,0.0000,สาม
459963,-0.1861,0.0642,-0.0294,0.2969,1.2271,-9.7052,1.7791,7.0317,172.7446,0.0000,0.0000,0.0000,0.0000,0.0000,สาม
460079,-0.1929,0.0772,0.0030,0.2616,1.2103,-9.7052,1.7544,7.0391,172.7434,0.0000,0.0000,0.0000,0.0000,0.0000,สาม
460195,-0.2039,0.0774,-0.0128,0.3597,1.2133,-9.7166,1.7894,7.0465,172.7277,0.0000,0.0000,0.0000,0.0000,0.0000,สาม
460311,-0.2106,0.0983,0.0018,0.3011,1.1947,-9.7178,1.7866,7.0424,172.7323,0.0000,0.0000,0.0000,0.0000,0.0000,สาม
460427,-0.1880,0.0920,0.0327,0.2957,1.2361,-9.7471,1.7803,7.0606,172.7162,0.0000,0.0000,0.0000,0.0000,0.0000,สาม
460543,-0.2076,0.1046,-0.0070,0.2981,1.2378,-9.6945,1.7770,7.0818,172.6965,0.0000,0.0000,0.0000,0.0000,0.0000,สาม
460659,-0.1984,0.0652,0.0404,0.3083,1.2498,-9.7406,1.7791,7.1045,172.6740,0.0000,0.0000,0.0000,0.0000,0.0000,สาม
460775,-0.1840,0.0695,-0.0597,0.2879,1.2163,-9.7436,1.7691,7.1053,172.6756,0.0000,0.0000,0.0000,0.0000,0.0000,สาม
460891,-0.2057,0.0939,0.0239,0.3502,1.2241,-9.7364,1.7966,7.1109,172.6634,0.0000,0.0000,0.0000,0.0000,0.0000,สาม
461007,-0.2097,0.0785,-0.0279,0.2999,1.2001,-9.7250,1.7922,7.1030,172.6721,0.0000,0.0000,0.0000,0.0000,0.0000,สาม
461123,-0.2014,0.0519,0.0461,0.3388,1.2289,-9.7346,1.8108,7.1117,172.6591,0.0000,0.0000,0.0000,0.0000,0.0000,สาม
461239,-0.2146,0.0657,0.0260,0.2915,1.2390,-9.7597,1.7994,7.1238,172.6502,0.0000,0.0000,0.0000,0.0000,0.0000,สาม
461355,-0.2151,0.0682,-0.0288,0.2706,1.2378,-9.6993,1.7780,7.1384,172.6413,0.0000,0.0000,0.0000,0.0000,0.0000,สาม
461471,-0.2098,0.0887,0.0142,0.3406,1.2361,-9.7298,1.7991,7.1481,172.6266,0.0000,0.0000,0.0000,0.0000,0.0000,สาม
461587,-0.2061,0.0763,0.0234,0.3663,1.2157,-9.7196,1.8333,7.1458,172.6204,0.0000,0.0000,0.0000,0.0000,0.0000,สาม
461703,-0.2087,0.0724,-0.0117,0.2496,1.2121,-9.7250,1.7959,7.1414,172.6339,0.0000,0.0000,0.0000,0.0000,0.0000,สาม
461819,-0.2022,0.0762,0.0387,0.3262,1.2091,-9.7507,1.8065,7.1338,172.6387,0.0000,0.0000,0.0000,0.0000,0.0000,สาม
