timestamp_ms,gyro_x,gyro_y,gyro_z,accel_x,accel_y,accel_z,roll,pitch,yaw,adc0,adc1,adc2,adc3,adc4,Label
11616,-0.2187,0.0627,0.0224,0.3244,1.2013,-9.7729,1.8936,7.0260,172.7209,0.0000,0.0000,0.0000,0.0000,0.0000,nothing
11732,-0.2042,0.0199,0.0575,0.2807,1.2193,-9.7352,1.8682,7.0370,172.7169,0.0000,0.0000,0.0000,0.0000,0.0000,nothing
11848,-0.2038,0.0646,-0.0342,0.3274,1.2127,-9.7765,1.8717,7.0400,172.7130,0.0000,0.0000,0.0000,0.0000,0.0000,nothing
11964,-0.2165,0.0534,0.0528,0.3172,1.2139,-9.7310,1.8698,7.0467,172.7070,0.0000,0.0000,0.0000,0.0000,0.0000,nothing
12080,-0.2035,0.0361,0.0769,0.3023,1.2349,-9.7477,1.8591,7.0637,172.6934,0.0000,0.0000,0.0000,0.0000,0.0000,nothing
12196,-0.1992,0.0802,-0.0528,0.3382,1.2420,-9.7370,1.8705,7.0838,172.6710,0.0000,0.0000,0.0000,0.0000,0.0000,nothing
12312,-0.2303,0.0870,0.0338,0.3448,1.2133,-9.7406,1.8846,7.0850,172.6661,0.0000,0.0000,0.0000,0.0000,0.0000,nothing
12428,-0.1804,0.0046,-0.0935,0.3478,1.1229,-9.6909,1.9002,7.0373,172.7081,0.0000,0.0000,0.0000,0.0000,0.0000,nothing
12544,-0.1421,0.2672,0.0990,0.9811,1.7921,-9.5418,2.2853,7.3913,172.2597,0.0000,0.0000,0.0000,0.0000,0.0000,หนึ่ง
12660,-0.4470,0.1930,0.0935,0.3885,1.1834,-9.7394,2.2835,7.3444,172.3051,0.0000,0.0000,0.0000,0.0000,0.0000,หนึ่ง
12776,-0.2421,0.0807,-0.0285,0.3322,1.0529,-9.8166,2.2477,7.2210,172.4337,0.0000,0.0000,0.0000,0.0000,0.0000,หนึ่ง
12892,-0.1223,0.0376,0.0181,0.3137,1.1337,-9.7334,2.2063,7.1630,172.5015,0.0000,0.0000,0.0000,0.0000,0.0000,หนึ่ง
13008,-0.1541,0.0600,-0.0146,0.3621,1.2492,-9.7184,2.1973,7.1787,172.4892,0.0000,0.0000,0.0000,0.0000,0.0000,หนึ่ง
13124,-0.1515,0.0829,-0.0567,0.3412,1.1894,-9.7436,2.1767,7.1563,172.5167,0.0000,0.0000,0.0000,0.0000,0.0000,หนึ่ง
13240,-0.2149,0.0713,-0.0090,0.3388,1.2426,-9.7322,2.1568,7.1679,172.5114,0.0000,0.0000,0.0000,0.0000,0.0000,หนึ่ง
13356,-0.1726,0.0889,0.0391,0.3190,1.2079,-9.7268,2.1275,7.1586,172.5287,0.0000,0.0000,0.0000,0.0000,0.0000,หนึ่ง
13472,-0.2144,0.0720,-0.0098,0.4058,1.1828,-9.7651,2.1511,7.1327,172.5467,0.0000,0.0000,0.0000,0.0000,0.0000,หนึ่ง
13588,-0.1804,0.0469,-0.0194,0.1897,1.2672,-9.7154,2.0471,7.1625,172.5478,0.0000,0.0000,0.0000,0.0000,0.0000,หนึ่ง
13704,-0.1997,0.0858,-0.0034,0.2759,1.1942,-9.7208,2.0039,7.1463,172.5752,0.0000,0.0000,0.0000,0.0000,0.0000,หนึ่ง
13820,-0.2015,0.0646,-0.0149,0.3831,1.2366,-9.7471,2.0268,7.1542,172.5613,0.0000,0.0000,0.0000,0.0000,0.0000,หนึ่ง
13936,-0.2038,0.0538,0.0154,0.2825,1.2109,-9.7136,1.9895,7.1491,172.5764,0.0000,0.0000,0.0000,0.0000,0.0000,หนึ่ง
14052,-0.2074,0.0264,0.0289,0.3262,1.1253,-9.7878,1.9802,7.0895,172.6364,0.0000,0.0000,0.0000,0.0000,0.0000,break_time
14168,-0.1910,0.0314,-0.0863,0.2915,0.9583,-9.8986,1.9498,6.9314,172.7970,0.0000,0.0000,0.0000,0.0000,0.0000,break_time
14284,-0.0759,0.0207,-0.0053,0.2334,1.1870,-9.7406,1.8912,6.9329,172.8114,0.0000,0.0000,0.0000,0.0000,0.0000,break_time
14400,-0.1842,0.0686,0.0192,0.2921,1.2732,-9.7621,1.8720,6.9824,172.7686,0.0000,0.0000,0.0000,0.0000,0.0000,break_time
14516,-0.1973,0.0582,0.0284,0.3292,1.2582,-9.7112,1.8773,7.0218,172.7291,0.0000,0.0000,0.0000,0.0000,0.0000,break_time
14632,-0.2083,0.0440,0.0320,0.3065,1.2738,-9.7172,1.8687,7.0660,172.6886,0.0000,0.0000,0.0000,0.0000,0.0000,break_time
14748,-0.2191,0.0889,0.0432,0.2741,1.2378,-9.7286,1.8420,7.0842,172.6779,0.0000,0.0000,0.0000,0.0000,0.0000,break_time
14864,-0.2275,0.0878,-0.0143,0.3190,1.2271,-9.7190,1.8443,7.0950,172.6669,0.0000,0.0000,0.0000,0.0000,0.0000,break_time
14980,-0.2157,0.0819,0.0315,0.3310,1.2127,-9.7483,1.8529,7.0942,172.6654,0.0000,0.0000,0.0000,0.0000,0.0000,break_time
15096,-0.1843,0.0877,0.0656,0.2885,1.1983,-9.7513,1.8358,7.0851,172.6786,0.0000,0.0000,0.0000,0.0000,0.0000,break_time
15212,-0.2112,0.0466,-0.0574,0.3460,1.1870,-9.7346,1.8543,7.0713,172.6872,0.0000,0.0000,0.0000,0.0000,0.0000,break_time
15328,-0.1881,0.0789,0.0352,0.2765,1.2253,-9.7226,1.8305,7.0822,172.6827,0.0000,0.0000,0.0000,0.0000,0.0000,break_time
15444,-0.2099,0.0889,-0.0132,0.3496,1.2396,-9.7118,1.8519,7.1009,172.6592,0.0000,0.0000,0.0000,0.0000,0.0000,break_time
15560,-0.2240,0.0680,-0.0499,0.2975,1.2007,-9.6927,1.8412,7.0966,172.6660,0.0000,0.0000,0.0000,0.0000,0.0000,break_time
15676,-0.2158,0.0513,0.0420,0.2795,1.2169,-9.7489,1.8200,7.0982,172.6698,0.0000,0.0000,0.0000,0.0000,0.0000,break_time
15792,-0.2164,0.0630,0.0165,0.3454,1.1666,-9.7370,1.8397,7.0712,172.6910,0.0000,0.0000,0.0000,0.0000,0.0000,break_time
15908,-0.1437,0.0581,0.0609,0.3274,1.1582,-9.7208,1.8473,7.0432,172.7162,0.0000,0.0000,0.0000,0.0000,0.0000,break_time
16024,-0.2653,0.0056,-0.0014,0.4100,1.4743,-9.7950,1.9002,7.1955,172.5552,0.0000,0.0000,0.0000,0.0000,0.0000,break_time
16140,-0.3160,0.0964,0.0016,0.2867,1.3737,-9.7118,1.8776,7.2807,172.4786,0.0000,0.0000,0.0000,0.0000,0.0000,break_time
16256,-0.2770,0.0994,0.0108,0.2700,1.1445,-9.7436,1.8475,7.2223,172.5427,0.0000,0.0000,0.0000,0.0000,0.0000,break_time
16372,-0.2110,0.0626,0.0204,0.3274,1.0714,-9.7759,1.8535,7.1250,172.6354,0.0000,0.0000,0.0000,0.0000,0.0000,break_time
16488,-0.1614,0.0872,0.0289,0.2849,1.2636,-9.6993,1.8350,7.1544,172.6117,0.0000,0.0000,0.0000,0.0000,0.0000,break_time
16604,-0.2249,0.0928,0.0085,0.3484,1.0367,-9.7950,1.8542,7.0424,172.7152,0.0000,0.0000,0.0000,0.0000,0.0000,break_time
16720,-0.1100,0.0218,-0.0282,0.4106,1.1289,-9.7561,1.9082,6.9976,172.7444,0.0000,0.0000,0.0000,0.0000,0.0000,break_time
16836,-0.1485,0.0733,-0.0003,0.4591,1.2355,-9.7160,1.9857,7.0217,172.7002,0.0000,0.0000,0.0000,0.0000,0.0000,break_time
16952,-0.1816,0.0462,-0.0322,0.2993,1.2726,-9.7094,1.9622,7.0658,172.6641,0.0000,0.0000,0.0000,0.0000,0.0000,break_time
17068,-0.2045,0.0645,0.0030,0.3442,1.2079,-9.7136,1.9674,7.0676,172.6610,0.0000,0.0000,0.0000,0.0000,0.0000,nothing
17184,-0.1955,0.0675,-0.0494,0.3059,1.2708,-9.7124,1.9495,7.1059,172.6289,0.0000,0.0000,0.0000,0.0000,0.0000,nothing
17300,-0.2131,0.0806,0.0383,0.3615,1.2103,-9.7382,1.9656,7.1033,172.6271,0.0000,0.0000,0.0000,0.0000,0.0000,nothing
17416,-0.2099,0.0583,0.0112,0.3226,1.1894,-9.7292,1.9575,7.0895,172.6425,0.0000,0.0000,0.0000,0.0000,0.0000,nothing
17532,-0.1786,0.0653,0.0161,0.3280,1.2283,-9.6921,1.9541,7.1024,172.6310,0.0000,0.0000,0.0000,0.0000,0.0000,หนึ่ง
17648,-0.2391,0.0594,-0.0188,0.2544,1.3707,-9.7142,1.9072,7.1951,172.5538,0.0000,0.0000,0.0000,0.0000,0.0000,หนึ่ง
17764,-0.2353,0.1170,0.0258,0.2759,1.2265,-9.6981,1.8783,7.1961,172.5603,0.0000,0.0000,0.0000,0.0000,0.0000,หนึ่ง
17880,-0.2019,0.0810,0.0417,0.3430,1.2067,-9.7364,1.8907,7.1825,172.5703,0.0000,0.0000,0.0000,0.0000,0.0000,หนึ่ง
17996,-0.1929,0.0720,0.0589,0.2957,1.1738,-9.7394,1.8743,7.1512,172.6048,0.0000,0.0000,0.0000,0.0000,0.0000,หนึ่ง
18112,-0.1926,0.0613,-0.0369,0.3286,1.2079,-9.7453,1.8785,7.1422,172.6124,0.0000,0.0000,0.0000,0.0000,0.0000,หนึ่ง
18228,-0.1775,0.0598,-0.0353,0.3148,1.2283,-9.7459,1.8742,7.1459,172.6099,0.0000,0.0000,0.0000,0.0000,0.0000,หนึ่ง
18344,-0.1921,0.0791,-0.0067,0.3448,1.2205,-9.7525,1.8877,7.1442,172.6081,0.0000,0.0000,0.0000,0.0000,0.0000,หนึ่ง
18460,-0.1948,0.0566,-0.0406,0.3280,1.2289,-9.7202,1.8907,7.1499,172.6018,0.0000,0.0000,0.0000,0.0000,0.0000,หนึ่ง
18576,-0.2204,0.0529,0.0161,0.3861,1.2181,-9.7262,1.9272,7.1482,172.5939,0.0000,0.0000,0.0000,0.0000,0.0000,หนึ่ง
18692,-0.1996,0.0894,0.0654,0.3298,1.3324,-9.7316,1.9268,7.2127,172.5317,0.0000,0.0000,0.0000,0.0000,0.0000,break_time
18808,-0.2275,0.0489,-0.0304,0.4370,1.4324,-9.5400,1.9925,7.3426,172.3890,0.0000,0.0000,0.0000,0.0000,0.0000,break_time
18924,-0.3678,0.1445,0.0405,0.1556,1.2510,-9.8130,1.8825,7.3348,172.4249,0.0000,0.0000,0.0000,0.0000,0.0000,break_time
19040,-0.1720,0.0684,0.0116,0.2945,1.0421,-9.6837,1.8675,7.2160,172.5438,0.0000,0.0000,0.0000,0.0000,0.0000,break_time
19156,-0.0699,0.0312,0.0065,0.3490,1.0840,-9.7400,1.8847,7.1290,172.6236,0.0000,0.0000,0.0000,0.0000,0.0000,break_time
19272,-0.1059,0.0170,-0.0364,0.3286,1.2558,-9.7316,1.8881,7.1510,172.6014,0.0000,0.0000,0.0000,0.0000,0.0000,break_time
19388,-0.1823,0.0613,0.0304,0.3376,1.2821,-9.7130,1.8966,7.1874,172.5640,0.0000,0.0000,0.0000,0.0000,0.0000,break_time
19504,-0.2263,0.1059,0.0672,0.3651,1.2911,-9.7358,1.9199,7.2237,172.5229,0.0000,0.0000,0.0000,0.0000,0.0000,break_time
19620,-0.2209,0.0783,-0.0314,0.2927,1.2552,-9.7651,1.8982,7.2335,172.5190,0.0000,0.0000,0.0000,0.0000,0.0000,break_time
19736,-0.2132,0.0627,0.0234,0.3412,1.2361,-9.7495,1.9072,7.2322,172.5179,0.0000,0.0000,0.0000,0.0000,0.0000,break_time
19852,-0.1922,0.0682,0.0109,0.2969,1.2145,-9.7040,1.8904,7.2221,172.5320,0.0000,0.0000,0.0000,0.0000,0.0000,break_time
19968,-0.1967,0.0684,-0.0574,0.2658,1.2444,-9.7519,1.8561,7.2268,172.5361,0.0000,0.0000,0.0000,0.0000,0.0000,break_time
20084,-0.2270,0.0686,0.0074,0.1580,1.2205,-9.7340,1.7628,7.2188,172.5668,0.0000,0.0000,0.0000,0.0000,0.0000,break_time
20200,-0.2052,0.0695,0.0179,0.3573,1.1989,-9.7382,1.7951,7.1984,172.5789,0.0000,0.0000,0.0000,0.0000,0.0000,break_time
20316,-0.2031,0.0781,-0.0042,0.2741,1.2259,-9.7447,1.7755,7.1952,172.5867,0.0000,0.0000,0.0000,0.0000,0.0000,break_time
20432,-0.2007,0.0528,0.0440,0.3460,1.2241,-9.7214,1.8001,7.1929,172.5829,0.0000,0.0000,0.0000,0.0000,0.0000,break_time
20548,-0.1810,0.0983,0.0458,0.3310,1.2013,-9.7160,1.8138,7.1781,172.5939,0.0000,0.0000,0.0000,0.0000,0.0000,break_time
20664,-0.1890,0.0878,-0.0008,0.3125,1.3635,-9.7232,1.8147,7.2583,172.5159,0.0000,0.0000,0.0000,0.0000,0.0000,break_time
20780,-0.2057,0.0679,-0.0076,0.2885,1.2325,-9.7346,1.8016,7.2537,172.5236,0.0000,0.0000,0.0000,0.0000,0.0000,break_time
20896,-0.2004,0.0657,0.0025,0.2604,1.2157,-9.7436,1.7733,7.2393,172.5444,0.0000,0.0000,0.0000,0.0000,0.0000,break_time
21012,-0.1840,0.0762,-0.0115,0.4094,1.1403,-9.7567,1.8348,7.1813,172.5856,0.0000,0.0000,0.0000,0.0000,0.0000,break_time
21128,-0.2057,0.0600,0.0492,0.2724,1.2732,-9.7334,1.8102,7.2081,172.5657,0.0000,0.0000,0.0000,0.0000,0.0000,break_time
21244,-0.2131,0.0586,-0.0101,0.2873,1.2337,-9.7412,1.7968,7.2088,172.5683,0.0000,0.0000,0.0000,0.0000,0.0000,break_time
21360,-0.1924,0.0750,0.0286,0.3190,1.2103,-9.7328,1.8034,7.1964,172.5788,0.0000,0.0000,0.0000,0.0000,0.0000,break_time
21476,-0.2014,0.0900,-0.0600,0.3322,1.1750,-9.7615,1.8166,7.1627,172.6082,0.0000,0.0000,0.0000,0.0000,0.0000,break_time
21592,-0.1864,0.0240,0.0157,0.2059,1.2277,-9.7436,1.7551,7.1644,172.6216,0.0000,0.0000,0.0000,0.0000,0.0000,break_time
21708,-0.1059,0.0688,0.0113,0.3801,1.2780,-9.7070,1.8018,7.1974,172.5782,0.0000,0.0000,0.0000,0.0000,0.0000,break_time
21824,-0.2024,0.1111,0.0068,0.3328,1.2163,-9.7184,1.8162,7.1906,172.5812,0.0000,0.0000,0.0000,0.0000,0.0000,nothing
21940,-0.1801,0.0735,-0.0736,0.3597,1.2307,-9.7052,1.8451,7.1937,172.5710,0.0000,0.0000,0.0000,0.0000,0.0000,nothing
22056,-0.1825,0.0499,-0.0052,0.3208,1.2636,-9.7136,1.8482,7.2151,172.5495,0.0000,0.0000,0.0000,0.0000,0.0000,nothing
22172,-0.1883,0.0658,0.0090,0.3310,1.2630,-9.7262,1.8567,7.2330,172.5300,0.0000,0.0000,0.0000,0.0000,0.0000,nothing
22288,-0.2064,0.0428,-0.0168,0.3125,1.2408,-9.7166,1.8537,7.2371,172.5268,0.0000,0.0000,0.0000,0.0000,0.0000,nothing
22404,-0.2044,0.0669,0.0100,0.3053,1.1780,-9.7310,1.8467,7.2033,172.5613,0.0000,0.0000,0.0000,0.0000,0.0000,nothing
22520,-0.2046,0.0395,-0.0046,0.3729,1.1971,-9.7334,1.8798,7.1836,172.5720,0.0000,0.0000,0.0000,0.0000,0.0000,nothing
22636,-0.2364,0.0682,0.0374,0.3783,1.2355,-9.6448,1.9144,7.1946,172.5524,0.0000,0.0000,0.0000,0.0000,0.0000,หนึ่ง
22752,-0.1257,0.1092,0.0365,0.1969,1.0493,-9.7573,1.8378,7.0888,172.6745,0.0000,0.0000,0.0000,0.0000,0.0000,หนึ่ง
22868,-0.0509,0.0758,-0.0374,0.4004,1.2618,-9.7412,1.8876,7.1174,172.6340,0.0000,0.0000,0.0000,0.0000,0.0000,หนึ่ง
22984,-0.2177,0.0404,0.0228,0.3597,1.3258,-9.7202,1.9089,7.1819,172.5661,0.0000,0.0000,0.0000,0.0000,0.0000,หนึ่ง
23100,-0.2519,0.0823,0.0142,0.3448,1.2313,-9.7471,1.9190,7.1833,172.5622,0.0000,0.0000,0.0000,0.0000,0.0000,หนึ่ง
23216,-0.2214,0.0856,0.0600,0.2981,1.1774,-9.7453,1.9011,7.1535,172.5957,0.0000,0.0000,0.0000,0.0000,0.0000,หนึ่ง
23332,-0.2129,0.0627,0.0045,0.1652,1.2193,-9.7112,1.8078,7.1537,172.6191,0.0000,0.0000,0.0000,0.0000,0.0000,หนึ่ง
23448,-0.2358,0.0733,-0.0147,0.2945,1.2181,-9.7609,1.7985,7.1494,172.6256,0.0000,0.0000,0.0000,0.0000,0.0000,หนึ่ง
23564,-0.1674,0.0438,0.0474,0.3376,1.2103,-9.7352,1.8158,7.1427,172.6278,0.0000,0.0000,0.0000,0.0000,0.0000,หนึ่ง
23680,-0.2045,0.0706,0.0308,0.3394,1.2516,-9.7238,1.8324,7.1614,172.6055,0.0000,0.0000,0.0000,0.0000,0.0000,หนึ่ง
23796,-0.1922,0.0345,-0.0251,0.2927,1.2372,-9.7561,1.8197,7.1677,172.6025,0.0000,0.0000,0.0000,0.0000,0.0000,หนึ่ง
23912,-0.2202,0.0862,0.0125,0.3047,1.2319,-9.7160,1.8159,7.1732,172.5982,0.0000,0.0000,0.0000,0.0000,0.0000,หนึ่ง
24028,-0.2038,0.0697,0.0389,0.3526,1.2319,-9.7837,1.8392,7.1730,172.5925,0.0000,0.0000,0.0000,0.0000,0.0000,หนึ่ง
24144,-0.1804,0.0573,0.0124,0.2885,1.3653,-9.7178,1.8237,7.2552,172.5168,0.0000,0.0000,0.0000,0.0000,0.0000,หนึ่ง
24260,-0.1496,0.0588,-0.0270,0.2867,1.2432,-9.7531,1.8083,7.2558,172.5199,0.0000,0.0000,0.0000,0.0000,0.0000,หนึ่ง
24376,-0.2086,0.0574,-0.0139,0.3585,1.1965,-9.7292,1.8369,7.2309,172.5370,0.0000,0.0000,0.0000,0.0000,0.0000,หนึ่ง
24492,-0.1808,0.0718,-0.0363,0.3579,1.2492,-9.7328,1.8622,7.2387,172.5231,0.0000,0.0000,0.0000,0.0000,0.0000,หนึ่ง
24608,-0.2210,0.0446,-0.0172,0.3023,1.2450,-9.7340,1.8524,7.2434,172.5210,0.0000,0.0000,0.0000,0.0000,0.0000,หนึ่ง
24724,-0.2511,0.0543,0.0031,0.3154,1.2450,-9.7058,1.8518,7.2496,172.5152,0.0000,0.0000,0.0000,0.0000,0.0000,หนึ่ง
24840,-0.2262,0.0807,-0.0397,0.3178,1.2420,-9.7459,1.8519,7.2505,172.5142,0.0000,0.0000,0.0000,0.0000,0.0000,หนึ่ง
24956,-0.1915,0.1099,-0.0259,0.2831,1.2157,-9.7525,1.8317,7.2357,172.5336,0.0000,0.0000,0.0000,0.0000,0.0000,หนึ่ง
25072,-0.2248,0.0545,0.0364,0.3119,1.1953,-9.7226,1.8309,7.2128,172.5561,0.0000,0.0000,0.0000,0.0000,0.0000,หนึ่ง
25188,-0.2403,0.0517,-0.0299,0.3352,1.2007,-9.7017,1.8441,7.1967,172.5684,0.0000,0.0000,0.0000,0.0000,0.0000,หนึ่ง
25304,-0.2038,0.0788,-0.0315,0.3388,1.2019,-9.7364,1.8575,7.1803,172.5809,0.0000,0.0000,0.0000,0.0000,0.0000,หนึ่ง
25420,-0.2029,0.0688,0.0282,0.2963,1.2223,-9.7513,1.8444,7.1764,172.5880,0.0000,0.0000,0.0000,0.0000,0.0000,หนึ่ง
25536,-0.2068,0.0423,-0.0264,0.3657,1.2432,-9.7424,1.8733,7.1855,172.5718,0.0000,0.0000,0.0000,0.0000,0.0000,หนึ่ง
25652,-0.2225,0.0502,0.0404,0.3190,1.1870,-9.7340,1.8723,7.1618,172.5950,0.0000,0.0000,0.0000,0.0000,0.0000,หนึ่ง
25768,-0.1894,0.0683,-0.0299,0.3029,1.1738,-9.7172,1.8623,7.1341,172.6243,0.0000,0.0000,0.0000,0.0000,0.0000,หนึ่ง
25884,-0.2011,0.0798,0.0296,0.3137,1.2253,-9.7238,1.8594,7.1385,172.6208,0.0000,0.0000,0.0000,0.0000,0.0000,หนึ่ง
26000,-0.1606,0.1096,0.0007,0.2951,1.2408,-9.7304,1.8458,7.1511,172.6121,0.0000,0.0000,0.0000,0.0000,0.0000,หนึ่ง
26116,-0.2192,0.0600,0.0301,0.2951,1.2546,-9.7477,1.8332,7.1691,172.5979,0.0000,0.0000,0.0000,0.0000,0.0000,หนึ่ง
26232,-0.2150,0.0387,0.0221,0.3017,1.2157,-9.7418,1.8258,7.1632,172.6054,0.0000,0.0000,0.0000,0.0000,0.0000,หนึ่ง
26348,-0.2229,0.0804,-0.0106,0.3202,1.2247,-9.7573,1.8298,7.1619,172.6057,0.0000,0.0000,0.0000,0.0000,0.0000,หนึ่ง
26464,-0.2142,0.0690,0.0026,0.3077,1.2007,-9.7208,1.8267,7.1495,172.6184,0.0000,0.0000,0.0000,0.0000,0.0000,หนึ่ง
26580,-0.1772,0.0754,0.0057,0.3137,1.2091,-9.7471,1.8270,7.1413,172.6263,0.0000,0.0000,0.0000,0.0000,0.0000,หนึ่ง
26696,-0.2024,0.0489,-0.0035,0.3250,1.2001,-9.7489,1.8338,7.1286,172.6369,0.0000,0.0000,0.0000,0.0000,0.0000,หนึ่ง
26812,-0.1779,0.0607,-0.0154,0.3226,1.2055,-9.7316,1.8389,7.1215,172.6425,0.0000,0.0000,0.0000,0.0000,0.0000,หนึ่ง
26928,-0.1948,0.0630,0.0536,0.3208,1.2205,-9.7436,1.8421,7.1230,172.6403,0.0000,0.0000,0.0000,0.0000,0.0000,หนึ่ง
27044,-0.2104,0.0575,0.0196,0.3226,1.2091,-9.7382,1.8462,7.1181,172.6440,0.0000,0.0000,0.0000,0.0000,0.0000,หนึ่ง
27160,-0.2063,0.0675,0.0294,0.3131,1.2193,-9.7250,1.8445,7.1205,172.6420,0.0000,0.0000,0.0000,0.0000,0.0000,หนึ่ง
27276,-0.2189,0.0454,0.0199,0.3083,1.2331,-9.7453,1.8398,7.1292,172.6348,0.0000,0.0000,0.0000,0.0000,0.0000,หนึ่ง
27392,-0.2180,0.0577,-0.0333,0.3226,1.2283,-9.7711,1.8435,7.1324,172.6308,0.0000,0.0000,0.0000,0.0000,0.0000,หนึ่ง
27508,-0.2050,0.0551,0.0269,0.3137,1.1924,-9.7507,1.8420,7.1160,172.6471,0.0000,0.0000,0.0000,0.0000,0.0000,หนึ่ง
27624,-0.1748,0.0698,0.0119,0.3083,1.2001,-9.7136,1.8382,7.1084,172.6554,0.0000,0.0000,0.0000,0.0000,0.0000,หนึ่ง
27740,-0.2162,0.0594,-0.0282,0.3137,1.2025,-9.7597,1.8371,7.0996,172.6642,0.0000,0.0000,0.0000,0.0000,0.0000,หนึ่ง
27856,-0.2064,0.0622,0.0091,0.2813,1.2115,-9.7453,1.8175,7.0980,172.6707,0.0000,0.0000,0.0000,0.0000,0.0000,หนึ่ง
27972,-0.1954,0.0488,0.0479,0.3035,1.1912,-9.7070,1.8135,7.0875,172.6819,0.0000,0.0000,0.0000,0.0000,0.0000,หนึ่ง
28088,-0.1839,0.0780,0.0169,0.3460,1.2271,-9.7489,1.8338,7.0957,172.6688,0.0000,0.0000,0.0000,0.0000,0.0000,หนึ่ง
28204,-0.1861,0.0553,0.0222,0.3352,1.2109,-9.7023,1.8467,7.0971,172.6642,0.0000,0.0000,0.0000,0.0000,0.0000,หนึ่ง
28320,-0.2279,0.0552,0.0285,0.2729,1.2235,-9.7531,1.8211,7.1021,172.6658,0.0000,0.0000,0.0000,0.0000,0.0000,หนึ่ง
28436,-0.2144,0.0648,-0.0038,0.3424,1.2414,-9.7400,1.8387,7.1179,172.6461,0.0000,0.0000,0.0000,0.0000,0.0000,หนึ่ง
28552,-0.2309,0.0540,0.0375,0.2801,1.2121,-9.7274,1.8185,7.1161,172.6529,0.0000,0.0000,0.0000,0.0000,0.0000,หนึ่ง
28668,-0.2185,0.0807,-0.0087,0.3005,1.1995,-9.7436,1.8120,7.1060,172.6643,0.0000,0.0000,0.0000,0.0000,0.0000,หนึ่ง
28784,-0.2084,0.0165,0.0132,0.3166,1.1971,-9.7118,1.8161,7.0978,172.6712,0.0000,0.0000,0.0000,0.0000,0.0000,หนึ่ง
28900,-0.2003,0.0533,0.0215,0.3460,1.2187,-9.7663,1.8359,7.0988,172.6652,0.0000,0.0000,0.0000,0.0000,0.0000,หนึ่ง
29016,-0.1922,0.0518,-0.0149,0.2729,1.2301,-9.7591,1.8112,7.1071,172.6634,0.0000,0.0000,0.0000,0.0000,0.0000,หนึ่ง
29132,-0.2030,0.0494,0.0150,0.3328,1.2043,-9.7406,1.8243,7.1008,172.6663,0.0000,0.0000,0.0000,0.0000,0.0000,หนึ่ง
29248,-0.1887,0.0631,0.0044,0.2951,1.2085,-9.7226,1.8144,7.0990,172.6705,0.0000,0.0000,0.0000,0.0000,0.0000,หนึ่ง
29364,-0.2226,0.0552,0.0019,0.3053,1.2229,-9.7489,1.8109,7.1037,172.6668,0.0000,0.0000,0.0000,0.0000,0.0000,หนึ่ง
29480,-0.2101,0.0622,-0.0453,0.3011,1.2133,-9.7430,1.8055,7.1028,172.6690,0.0000,0.0000,0.0000,0.0000,0.0000,หนึ่ง
29596,-0.1928,0.0509,0.0691,0.3597,1.2157,-9.7370,1.8349,7.1038,172.6607,0.0000,0.0000,0.0000,0.0000,0.0000,หนึ่ง
29712,-0.2273,0.1021,0.0101,0.2837,1.2109,-9.7394,1.8170,7.1018,172.6671,0.0000,0.0000,0.0000,0.0000,0.0000,หนึ่ง
29828,-0.1793,0.0678,0.0583,0.3041,1.2732,-9.7471,1.8125,7.1355,172.6356,0.0000,0.0000,0.0000,0.0000,0.0000,หนึ่ง
29944,-0.2015,0.0589,-0.0274,0.3992,1.2091,-9.7687,1.8636,7.1270,172.6310,0.0000,0.0000,0.0000,0.0000,0.0000,หนึ่ง
30060,-0.1723,0.0650,0.0345,0.3071,1.2624,-9.7244,1.8566,7.1535,172.6070,0.0000,0.0000,0.0000,0.0000,0.0000,หนึ่ง
30176,-0.1842,0.0656,-0.0476,0.3238,1.1947,-9.7358,1.8601,7.1374,172.6217,0.0000,0.0000,0.0000,0.0000,0.0000,หนึ่ง
30292,-0.2024,0.0461,0.0440,0.3550,1.2714,-9.7495,1.8808,7.1662,172.5886,0.0000,0.0000,0.0000,0.0000,0.0000,หนึ่ง
30408,-0.1741,0.0593,0.0390,0.2741,1.2570,-9.7220,1.8530,7.1860,172.5765,0.0000,0.0000,0.0000,0.0000,0.0000,หนึ่ง
30524,-0.1914,0.0635,0.0050,0.3035,1.2809,-9.7058,1.8453,7.2188,172.5467,0.0000,0.0000,0.0000,0.0000,0.0000,หนึ่ง
30640,-0.2423,0.0799,0.0128,0.3131,1.2390,-9.7430,1.8433,7.2213,172.5447,0.0000,0.0000,0.0000,0.0000,0.0000,หนึ่ง
30756,-0.2466,0.0866,0.0299,0.2975,1.3600,-9.7340,1.8323,7.2942,172.4767,0.0000,0.0000,0.0000,0.0000,0.0000,หนึ่ง
30872,-0.2074,0.0627,-0.0071,0.2520,1.2271,-9.7424,1.7961,7.2824,172.4970,0.0000,0.0000,0.0000,0.0000,0.0000,หนึ่ง
30988,-0.2318,0.0615,0.0139,0.3232,1.1702,-9.7591,1.8049,7.2375,172.5385,0.0000,0.0000,0.0000,0.0000,0.0000,หนึ่ง
31104,-0.1986,0.0615,0.0064,0.2694,1.1594,-9.7495,1.7815,7.1917,172.5886,0.0000,0.0000,0.0000,0.0000,0.0000,หนึ่ง
31220,-0.1956,0.0547,0.0600,0.3208,1.2157,-9.7328,1.7907,7.1842,172.5938,0.0000,0.0000,0.0000,0.0000,0.0000,หนึ่ง
31336,-0.2161,0.0582,-0.0078,0.3148,1.1947,-9.7322,1.7956,7.1653,172.6109,0.0000,0.0000,0.0000,0.0000,0.0000,หนึ่ง
31452,-0.2134,0.0687,-0.0240,0.3029,1.2181,-9.7418,1.7927,7.1611,172.6156,0.0000,0.0000,0.0000,0.0000,0.0000,หนึ่ง
31568,-0.1677,0.0785,0.0438,0.2783,1.1690,-9.7274,1.7762,7.1301,172.6498,0.0000,0.0000,0.0000,0.0000,0.0000,หนึ่ง
31684,-0.2116,0.0609,0.0180,0.3603,1.1780,-9.7310,1.8091,7.1069,172.6642,0.0000,0.0000,0.0000,0.0000,0.0000,หนึ่ง
31800,-0.2080,0.0579,0.0571,0.3573,1.1864,-9.7477,1.8366,7.0896,172.6740,0.0000,0.0000,0.0000,0.0000,0.0000,หนึ่ง
31916,-0.1918,0.0663,-0.0855,0.2436,1.2151,-9.7621,1.7947,7.0900,172.6841,0.0000,0.0000,0.0000,0.0000,0.0000,หนึ่ง
32032,-0.1971,0.0631,0.0256,0.3107,1.2468,-9.7268,1.7967,7.1111,172.6632,0.0000,0.0000,0.0000,0.0000,0.0000,หนึ่ง
32148,-0.1746,0.0560,0.0064,0.3508,1.1876,-9.7495,1.8216,7.0940,172.6736,0.0000,0.0000,0.0000,0.0000,0.0000,หนึ่ง
32264,-0.2304,0.0589,0.0601,0.2927,1.2121,-9.7082,1.8108,7.0959,172.6743,0.0000,0.0000,0.0000,0.0000,0.0000,หนึ่ง
32380,-0.2057,0.0683,-0.0345,0.3286,1.2163,-9.7418,1.8215,7.0976,172.6700,0.0000,0.0000,0.0000,0.0000,0.0000,หนึ่ง
32496,-0.2105,0.0868,0.0281,0.3023,1.2091,-9.7286,1.8159,7.0960,172.6730,0.0000,0.0000,0.0000,0.0000,0.0000,หนึ่ง
32612,-0.2562,0.0300,-0.0120,0.2975,1.2115,-9.7555,1.8077,7.0940,172.6770,0.0000,0.0000,0.0000,0.0000,0.0000,หนึ่ง
32728,-0.2192,0.0615,0.0341,0.2891,1.1732,-9.7477,1.7956,7.0706,172.7027,0.0000,0.0000,0.0000,0.0000,0.0000,หนึ่ง
32844,-0.1704,0.0705,-0.0210,0.3430,1.1989,-9.7118,1.8167,7.0669,172.7011,0.0000,0.0000,0.0000,0.0000,0.0000,หนึ่ง
32960,-0.1797,0.0368,0.0123,0.3502,1.1977,-9.7681,1.8389,7.0588,172.7033,0.0000,0.0000,0.0000,0.0000,0.0000,หนึ่ง
33076,-0.1753,0.0435,0.0303,0.3334,1.2001,-9.7388,1.8496,7.0550,172.7042,0.0000,0.0000,0.0000,0.0000,0.0000,หนึ่ง
33192,-0.2044,0.0813,0.0215,0.3304,1.2504,-9.7418,1.8573,7.0805,172.6775,0.0000,0.0000,0.0000,0.0000,0.0000,หนึ่ง
33308,-0.2044,0.0671,0.0204,0.2634,1.2534,-9.6879,1.8262,7.1093,172.6576,0.0000,0.0000,0.0000,0.0000,0.0000,หนึ่ง
33424,-0.1914,0.0720,-0.0221,0.2963,1.2205,-9.7669,1.8159,7.1103,172.6591,0.0000,0.0000,0.0000,0.0000,0.0000,หนึ่ง
33540,-0.2011,0.0814,0.0357,0.3071,1.2438,-9.6933,1.8143,7.1301,172.6404,0.0000,0.0000,0.0000,0.0000,0.0000,หนึ่ง
33656,-0.2075,0.0375,-0.0160,0.3101,1.2390,-9.7220,1.8141,7.1430,172.6279,0.0000,0.0000,0.0000,0.0000,0.0000,หนึ่ง
33772,-0.1836,0.0406,0.0161,0.2831,1.2295,-9.7220,1.7982,7.1491,172.6259,0.0000,0.0000,0.0000,0.0000,0.0000,หนึ่ง
33888,-0.2102,0.0548,0.0169,0.3957,1.2001,-9.7424,1.8492,7.1359,172.6259,0.0000,0.0000,0.0000,0.0000,0.0000,หนึ่ง
34004,-0.2056,0.0348,-0.0436,0.3083,1.2187,-9.7208,1.8445,7.1366,172.6265,0.0000,0.0000,0.0000,0.0000,0.0000,หนึ่ง
34120,-0.2309,0.0511,0.0406,0.3011,1.2103,-9.7376,1.8358,7.1311,172.6340,0.0000,0.0000,0.0000,0.0000,0.0000,หนึ่ง
34236,-0.2091,0.0571,-0.0679,0.3178,1.2235,-9.7328,1.8378,7.1341,172.6306,0.0000,0.0000,0.0000,0.0000,0.0000,หนึ่ง
34352,-0.2196,0.0345,0.0435,0.3047,1.2229,-9.7142,1.8323,7.1378,172.6284,0.0000,0.0000,0.0000,0.0000,0.0000,หนึ่ง
34468,-0.1640,0.0669,0.0184,0.3131,1.1786,-9.7424,1.8318,7.1135,172.6521,0.0000,0.0000,0.0000,0.0000,0.0000,หนึ่ง
34584,-0.1855,0.0643,0.0383,0.3143,1.2151,-9.7561,1.8317,7.1117,172.6538,0.0000,0.0000,0.0000,0.0000,0.0000,หนึ่ง
34700,-0.1624,0.0596,0.0169,0.2855,1.2247,-9.6885,1.8160,7.1206,172.6491,0.0000,0.0000,0.0000,0.0000,0.0000,หนึ่ง
34816,-0.1614,0.0840,0.0229,0.3220,1.2378,-9.7106,1.8228,7.1346,172.6339,0.0000,0.0000,0.0000,0.0000,0.0000,หนึ่ง
34932,-0.1830,0.0679,-0.0290,0.3735,1.2181,-9.7430,1.8585,7.1333,172.6262,0.0000,0.0000,0.0000,0.0000,0.0000,หนึ่ง
35048,-0.2414,0.0664,-0.0264,0.3717,1.2726,-9.7400,1.8894,7.1638,172.5887,0.0000,0.0000,0.0000,0.0000,0.0000,หนึ่ง
35164,-0.2697,0.0768,0.0124,0.2993,1.2199,-9.6717,1.8764,7.1660,172.5900,0.0000,0.0000,0.0000,0.0000,0.0000,หนึ่ง
35280,-0.1970,0.0654,0.0102,0.3615,1.1834,-9.7112,1.9003,7.1437,172.6053,0.0000,0.0000,0.0000,0.0000,0.0000,หนึ่ง
35396,-0.1782,0.0717,-0.0284,0.0257,1.2145,-9.7316,1.7253,7.1410,172.6514,0.0000,0.0000,0.0000,0.0000,0.0000,หนึ่ง
35512,-0.1947,0.0623,0.0203,0.4914,1.1098,-9.7693,1.8394,7.0741,172.6884,0.0000,0.0000,0.0000,0.0000,0.0000,หนึ่ง
35628,-0.2121,0.0588,-0.0348,0.3508,1.2115,-9.7005,1.8609,7.0781,172.6790,0.0000,0.0000,0.0000,0.0000,0.0000,หนึ่ง
35744,-0.2228,0.0783,0.0359,0.0581,1.3037,-9.7034,1.7090,7.1356,172.6605,0.0000,0.0000,0.0000,0.0000,0.0000,หนึ่ง
35860,-0.0398,0.0833,-0.0117,0.7267,0.9134,-9.7597,1.9627,6.9555,172.7703,0.0000,0.0000,0.0000,0.0000,0.0000,หนึ่ง
35976,-0.2157,-0.0560,-0.0184,0.2430,1.2935,-9.7567,1.9077,7.0151,172.7276,0.0000,0.0000,0.0000,0.0000,0.0000,หนึ่ง
36092,-0.1737,0.0138,-0.0097,0.1089,1.1792,-9.8052,1.7793,6.9994,172.7758,0.0000,0.0000,0.0000,0.0000,0.0000,หนึ่ง
36208,-0.2859,0.0905,0.0007,0.0257,1.5030,-9.7376,1.6159,7.1778,172.6407,0.0000,0.0000,0.0000,0.0000,0.0000,หนึ่ง
36324,-0.0802,0.1560,-0.0202,0.4519,1.1469,-9.6592,1.7195,7.1368,172.6569,0.0000,0.0000,0.0000,0.0000,0.0000,หนึ่ง
36440,-0.1599,0.0620,0.0256,0.4836,1.0942,-9.8028,1.8289,7.0589,172.7057,0.0000,0.0000,0.0000,0.0000,0.0000,หนึ่ง
36556,-0.1478,0.0380,-0.0269,0.1862,1.3408,-9.7693,1.7539,7.1347,172.6507,0.0000,0.0000,0.0000,0.0000,0.0000,หนึ่ง
36672,-0.1982,0.0750,-0.0359,0.3921,1.1876,-9.7076,1.8079,7.1182,172.6535,0.0000,0.0000,0.0000,0.0000,0.0000,หนึ่ง
36788,-0.2020,0.0566,0.0075,0.3585,1.1900,-9.7250,1.8367,7.1036,172.6605,0.0000,0.0000,0.0000,0.0000,0.0000,หนึ่ง
36904,-0.1753,0.0592,0.0259,0.3358,1.1205,-9.7621,1.8488,7.0475,172.7116,0.0000,0.0000,0.0000,0.0000,0.0000,หนึ่ง
37020,-0.1298,0.0494,-0.0249,0.3262,1.1876,-9.7447,1.8542,7.0372,172.7202,0.0000,0.0000,0.0000,0.0000,0.0000,หนึ่ง
37136,-0.1864,0.0420,-0.0134,0.3256,1.2666,-9.7142,1.8592,7.0759,172.6815,0.0000,0.0000,0.0000,0.0000,0.0000,หนึ่ง
37252,-0.2204,0.0684,0.0281,0.3292,1.2426,-9.7160,1.8657,7.0967,172.6597,0.0000,0.0000,0.0000,0.0000,0.0000,หนึ่ง
37368,-0.1933,0.0849,-0.0398,0.3502,1.2582,-9.7190,1.8838,7.1241,172.6285,0.0000,0.0000,0.0000,0.0000,0.0000,หนึ่ง
37484,-0.2165,0.0519,0.0195,0.2849,1.2295,-9.7471,1.8615,7.1304,172.6282,0.0000,0.0000,0.0000,0.0000,0.0000,หนึ่ง
37600,-0.2149,0.0593,-0.0553,0.2993,1.1540,-9.7196,1.8505,7.0942,172.6660,0.0000,0.0000,0.0000,0.0000,0.0000,หนึ่ง
37716,-0.1407,0.0909,0.0464,0.2741,1.0553,-9.7603,1.8254,7.0016,172.7621,0.0000,0.0000,0.0000,0.0000,0.0000,หนึ่ง
37832,-0.1290,-0.0014,-0.0368,0.4453,1.1750,-9.7825,1.9020,6.9856,172.7576,0.0000,0.0000,0.0000,0.0000,0.0000,หนึ่ง
37948,-0.1853,0.0787,-0.0038,0.2873,1.2456,-9.6861,1.8804,7.0194,172.7307,0.0000,0.0000,0.0000,0.0000,0.0000,หนึ่ง
38064,-0.1945,0.0796,-0.0115,0.2957,1.2672,-9.7645,1.8643,7.0567,172.6988,0.0000,0.0000,0.0000,0.0000,0.0000,หนึ่ง
38180,-0.2301,0.0480,0.0410,0.2604,1.1882,-9.6981,1.8307,7.0493,172.7146,0.0000,0.0000,0.0000,0.0000,0.0000,หนึ่ง
38296,-0.2292,0.0571,-0.0044,0.3424,1.1445,-9.7465,1.8475,7.0136,172.7448,0.0000,0.0000,0.0000,0.0000,0.0000,หนึ่ง
38412,-0.2285,0.0597,-0.0020,0.3238,1.2642,-9.7525,1.8513,7.0505,172.7081,0.0000,0.0000,0.0000,0.0000,0.0000,หนึ่ง
38528,-0.2592,0.0736,-0.0211,0.2867,1.2127,-9.7549,1.8332,7.0538,172.7095,0.0000,0.0000,0.0000,0.0000,0.0000,หนึ่ง
38644,-0.2106,0.0536,0.0266,0.3053,1.2037,-9.7447,1.8280,7.0523,172.7123,0.0000,0.0000,0.0000,0.0000,0.0000,หนึ่ง
38760,-0.2358,0.0755,0.0450,0.2879,1.2133,-9.7579,1.8129,7.0555,172.7130,0.0000,0.0000,0.0000,0.0000,0.0000,หนึ่ง
38876,-0.2315,0.0560,-0.0143,0.3089,1.2289,-9.7394,1.8118,7.0688,172.7004,0.0000,0.0000,0.0000,0.0000,0.0000,หนึ่ง
38992,-0.1992,0.0560,-0.0264,0.2741,1.1684,-9.7519,1.7905,7.0448,172.7289,0.0000,0.0000,0.0000,0.0000,0.0000,หนึ่ง
39108,-0.2510,0.0627,-0.0139,0.4178,1.2319,-9.7597,1.8548,7.0592,172.6988,0.0000,0.0000,0.0000,0.0000,0.0000,หนึ่ง
39224,-0.2326,0.0712,-0.0631,0.2789,1.2552,-9.7747,1.8314,7.0848,172.6800,0.0000,0.0000,0.0000,0.0000,0.0000,หนึ่ง
39340,-0.2247,0.0729,0.0052,0.3274,1.1930,-9.7603,1.8390,7.0727,172.6897,0.0000,0.0000,0.0000,0.0000,0.0000,หนึ่ง
39456,-0.2218,0.0601,-0.0041,0.2789,1.1247,-9.7346,1.8182,7.0244,172.7418,0.0000,0.0000,0.0000,0.0000,0.0000,หนึ่ง
39572,-0.1722,0.0439,0.0609,0.3448,1.2007,-9.7621,1.8371,7.0227,172.7386,0.0000,0.0000,0.0000,0.0000,0.0000,หนึ่ง
39688,-0.1643,0.0630,0.0281,0.2706,1.1965,-9.7597,1.8110,7.0192,172.7487,0.0000,0.0000,0.0000,0.0000,0.0000,หนึ่ง
39804,-0.1907,0.0622,0.0309,0.3238,1.2151,-9.7579,1.8185,7.0267,172.7395,0.0000,0.0000,0.0000,0.0000,0.0000,หนึ่ง
39920,-0.1956,0.0532,0.0225,0.3310,1.2175,-9.6843,1.8308,7.0401,172.7234,0.0000,0.0000,0.0000,0.0000,0.0000,หนึ่ง
40036,-0.2342,0.0573,0.0483,0.3190,1.2366,-9.7160,1.8343,7.0610,172.7023,0.0000,0.0000,0.0000,0.0000,0.0000,หนึ่ง
40152,-0.2030,0.0742,-0.0476,0.2783,1.2355,-9.7082,1.8139,7.0798,172.6892,0.0000,0.0000,0.0000,0.0000,0.0000,หนึ่ง
40268,-0.2078,0.0562,-0.0014,0.3250,1.2498,-9.7292,1.8222,7.1034,172.6642,0.0000,0.0000,0.0000,0.0000,0.0000,หนึ่ง
40384,-0.2016,0.0720,0.0476,0.3382,1.2355,-9.7064,1.8379,7.1180,172.6462,0.0000,0.0000,0.0000,0.0000,0.0000,หนึ่ง
40500,-0.2256,0.0705,0.0165,0.3292,1.2049,-9.7866,1.8454,7.1076,172.6543,0.0000,0.0000,0.0000,0.0000,0.0000,หนึ่ง
40616,-0.2105,0.0399,-0.0320,0.3520,1.0762,-9.7471,1.8664,7.0266,172.7273,0.0000,0.0000,0.0000,0.0000,0.0000,หนึ่ง
40732,-0.2108,0.1153,-0.0083,0.2819,1.2253,-9.7274,1.8445,7.0416,172.7185,0.0000,0.0000,0.0000,0.0000,0.0000,หนึ่ง
