timestamp_ms,gyro_x,gyro_y,gyro_z,accel_x,accel_y,accel_z,roll,pitch,yaw,adc0,adc1,adc2,adc3,adc4,Label
394888,-0.2120,0.0649,-0.0266,0.2957,1.2343,-9.7262,1.7534,7.2440,172.5446,0.0000,0.0000,0.0000,0.0000,0.0000,nothing
395004,-0.2157,0.0836,0.0303,0.3077,1.2157,-9.7226,1.7579,7.2320,172.5552,0.0000,0.0000,0.0000,0.0000,0.0000,nothing
395120,-0.1830,0.0560,-0.0203,0.2999,1.2241,-9.6909,1.7580,7.2284,172.5587,0.0000,0.0000,0.0000,0.0000,0.0000,nothing
395236,-0.2004,0.0763,0.0420,0.3370,1.2205,-9.7442,1.7788,7.2190,172.5628,0.0000,0.0000,0.0000,0.0000,0.0000,nothing
395352,-0.1986,0.0763,0.0030,0.2783,1.2217,-9.7220,1.7636,7.2131,172.5722,0.0000,0.0000,0.0000,0.0000,0.0000,nothing
395468,-0.2027,0.0746,-0.0147,0.3143,1.2157,-9.7232,1.7709,7.2041,172.5792,0.0000,0.0000,0.0000,0.0000,0.0000,nothing
395584,-0.1771,0.0642,-0.0252,0.2747,1.2043,-9.7418,1.7541,7.1881,172.5987,0.0000,0.0000,0.0000,0.0000,0.0000,nothing
395700,-0.1860,0.0859,0.0014,0.3214,1.2420,-9.7112,1.7668,7.1977,172.5863,0.0000,0.0000,0.0000,0.0000,0.0000,nothing
395816,-0.1924,0.0890,0.0590,0.3178,1.2959,-9.7376,1.7754,7.2357,172.5474,0.0000,0.0000,0.0000,0.0000,0.0000,nothing
395932,-0.1909,0.0975,-0.0339,0.3089,1.2510,-9.7280,1.7782,7.2446,172.5381,0.0000,0.0000,0.0000,0.0000,0.0000,nothing
396048,-0.1973,0.0675,0.0154,0.3400,1.2558,-9.7567,1.7984,7.2531,172.5249,0.0000,0.0000,0.0000,0.0000,0.0000,nothing
396164,-0.2307,0.0712,0.0305,0.3029,1.2301,-9.7286,1.7955,7.2481,172.5305,0.0000,0.0000,0.0000,0.0000,0.0000,nothing
396280,-0.2120,0.0843,0.0434,0.3095,1.2187,-9.7148,1.7970,7.2380,172.5400,0.0000,0.0000,0.0000,0.0000,0.0000,nothing
396396,-0.1873,0.0717,0.0299,0.2999,1.1959,-9.7465,1.7922,7.2134,172.5650,0.0000,0.0000,0.0000,0.0000,0.0000,nothing
396512,-0.2048,0.0943,-0.0806,0.3053,1.2396,-9.7064,1.7917,7.2195,172.5592,0.0000,0.0000,0.0000,0.0000,0.0000,nothing
396628,-0.2018,0.0477,-0.0263,0.3095,1.2462,-9.6915,1.7939,7.2299,172.5486,0.0000,0.0000,0.0000,0.0000,0.0000,nothing
396744,-0.2307,0.0922,0.0419,0.3190,1.2552,-9.7298,1.8008,7.2416,172.5356,0.0000,0.0000,0.0000,0.0000,0.0000,nothing
396860,-0.1971,0.0838,-0.0116,0.2735,1.2175,-9.7316,1.7805,7.2303,172.5515,0.0000,0.0000,0.0000,0.0000,0.0000,nothing
396976,-0.1719,0.0792,0.0044,0.2837,1.2103,-9.7322,1.7681,7.2158,172.5685,0.0000,0.0000,0.0000,0.0000,0.0000,nothing
397092,-0.1884,0.0818,-0.0368,0.3059,1.2498,-9.7310,1.7699,7.2258,172.5584,0.0000,0.0000,0.0000,0.0000,0.0000,nothing
397208,-0.2084,0.0461,0.1268,0.3508,1.2552,-9.7388,1.7975,7.2372,172.5406,0.0000,0.0000,0.0000,0.0000,0.0000,nothing
397324,-0.2041,0.0698,-0.0016,0.4573,1.2510,-9.7088,1.8851,7.2470,172.5093,0.0000,0.0000,0.0000,0.0000,0.0000,nothing
397440,-0.1790,0.0868,-0.0076,0.3113,1.2289,-9.7292,1.8784,7.2418,172.5160,0.0000,0.0000,0.0000,0.0000,0.0000,nothing
397556,-0.2039,0.1039,0.0236,0.3262,1.2408,-9.7202,1.8813,7.2447,172.5125,0.0000,0.0000,0.0000,0.0000,0.0000,nothing
397672,-0.2217,0.0615,0.0326,0.3053,1.2133,-9.7477,1.8711,7.2293,172.5299,0.0000,0.0000,0.0000,0.0000,0.0000,nothing
397788,-0.1997,0.0769,0.0350,0.2975,1.2660,-9.7298,1.8577,7.2474,172.5158,0.0000,0.0000,0.0000,0.0000,0.0000,nothing
397904,-0.2012,0.0762,-0.1198,0.1478,1.2450,-9.6550,1.7596,7.2574,172.5301,0.0000,0.0000,0.0000,0.0000,0.0000,nothing
398020,-0.3155,0.1246,0.0622,0.1383,1.4898,-9.6454,1.6652,7.4091,172.4040,0.0000,0.0000,0.0000,0.0000,0.0000,nothing
398136,-0.3321,0.1216,0.0443,0.2592,1.1457,-9.7316,1.6502,7.3394,172.4754,0.0000,0.0000,0.0000,0.0000,0.0000,nothing
398252,-0.1933,0.0941,0.0597,0.2981,1.1499,-9.7304,1.6595,7.2791,172.5322,0.0000,0.0000,0.0000,0.0000,0.0000,nothing
398368,-0.1272,0.0582,-0.0275,0.2921,1.1977,-9.7447,1.6640,7.2515,172.5580,0.0000,0.0000,0.0000,0.0000,0.0000,nothing
398484,-0.2468,0.0751,-0.0258,0.3125,1.2774,-9.7244,1.6800,7.2743,172.5322,0.0000,0.0000,0.0000,0.0000,0.0000,nothing
398600,-0.2553,0.0648,0.0639,0.2729,1.2265,-9.7130,1.6717,7.2663,172.5419,0.0000,0.0000,0.0000,0.0000,0.0000,nothing
398716,-0.2444,0.0763,-0.0425,0.3011,1.1690,-9.7447,1.6803,7.2233,172.5818,0.0000,0.0000,0.0000,0.0000,0.0000,nothing
398832,-0.1955,0.0631,0.0335,0.2807,1.2199,-9.7172,1.6765,7.2163,172.5896,0.0000,0.0000,0.0000,0.0000,0.0000,nothing
398948,-0.2011,0.0858,0.0282,0.3250,1.2337,-9.7406,1.6985,7.2161,172.5847,0.0000,0.0000,0.0000,0.0000,0.0000,nothing
399064,-0.1864,0.0798,0.0792,0.3382,1.1965,-9.7268,1.7263,7.1953,172.5983,0.0000,0.0000,0.0000,0.0000,0.0000,สอง
399180,-0.1391,0.1172,0.0342,0.4998,1.4593,-9.6861,1.8458,7.3316,172.4371,0.0000,0.0000,0.0000,0.0000,0.0000,สอง
399296,-0.3193,0.1156,0.0901,0.3986,1.3899,-9.7148,1.8939,7.4121,172.3471,0.0000,0.0000,0.0000,0.0000,0.0000,สอง
399412,-0.2343,0.0908,0.0097,0.3556,1.1702,-9.7585,1.9118,7.3541,172.3988,0.0000,0.0000,0.0000,0.0000,0.0000,สอง
399528,-0.1896,0.0435,-0.0447,0.2580,1.1959,-9.7412,1.8711,7.3184,172.4436,0.0000,0.0000,0.0000,0.0000,0.0000,สอง
399644,-0.2053,0.0967,0.0211,0.3059,1.1858,-9.7220,1.8629,7.2817,172.4813,0.0000,0.0000,0.0000,0.0000,0.0000,สอง
399760,-0.1924,0.0826,-0.0192,0.2891,1.2558,-9.7220,1.8456,7.2892,172.4783,0.0000,0.0000,0.0000,0.0000,0.0000,สอง
399876,-0.1962,0.0619,-0.0245,0.3059,1.2301,-9.7382,1.8395,7.2798,172.4889,0.0000,0.0000,0.0000,0.0000,0.0000,สอง
399992,-0.1831,0.0826,0.0260,0.3053,1.2791,-9.7621,1.8331,7.2980,172.4728,0.0000,0.0000,0.0000,0.0000,0.0000,สอง
400108,-0.2078,0.0772,0.0339,0.3292,1.2319,-9.7172,1.8423,7.2903,172.4780,0.0000,0.0000,0.0000,0.0000,0.0000,สอง
400224,-0.1949,0.0802,-0.0464,0.3160,1.2199,-9.7364,1.8425,7.2751,172.4928,0.0000,0.0000,0.0000,0.0000,0.0000,สอง
400340,-0.2248,0.0799,0.0352,0.3113,1.2229,-9.7070,1.8405,7.2652,172.5028,0.0000,0.0000,0.0000,0.0000,0.0000,สอง
400456,-0.1868,0.0590,-0.0691,0.3268,1.2241,-9.7070,1.8478,7.2571,172.5090,0.0000,0.0000,0.0000,0.0000,0.0000,สอง
400572,-0.2050,0.0575,0.0592,0.3011,1.2319,-9.6927,1.8395,7.2553,172.5127,0.0000,0.0000,0.0000,0.0000,0.0000,สอง
400688,-0.2009,0.0684,0.0401,0.2634,1.2265,-9.7513,1.8090,7.2464,172.5289,0.0000,0.0000,0.0000,0.0000,0.0000,สอง
400804,-0.2195,0.0502,0.0288,0.3310,1.1953,-9.7465,1.8212,7.2205,172.5510,0.0000,0.0000,0.0000,0.0000,0.0000,สอง
400920,-0.1821,0.0826,0.0379,0.4405,1.2456,-9.7268,1.8963,7.2275,172.5253,0.0000,0.0000,0.0000,0.0000,0.0000,สอง
401036,-0.2120,0.0739,-0.0168,0.2993,1.2253,-9.7064,1.8819,7.2239,172.5324,0.0000,0.0000,0.0000,0.0000,0.0000,สอง
401152,-0.2127,0.0570,-0.0143,0.2712,1.2522,-9.6957,1.8527,7.2371,172.5270,0.0000,0.0000,0.0000,0.0000,0.0000,สอง
401268,-0.1984,0.0770,0.0241,0.3095,1.2462,-9.7148,1.8484,7.2441,172.5214,0.0000,0.0000,0.0000,0.0000,0.0000,สอง
401384,-0.1899,0.0728,0.0014,0.2879,1.2253,-9.7268,1.8318,7.2373,172.5321,0.0000,0.0000,0.0000,0.0000,0.0000,สอง
401500,-0.1917,0.0731,0.0766,0.3520,1.2235,-9.7166,1.8544,7.2308,172.5327,0.0000,0.0000,0.0000,0.0000,0.0000,สอง
401616,-0.1940,0.0822,0.0112,0.3011,1.2744,-9.7436,1.8444,7.2526,172.5141,0.0000,0.0000,0.0000,0.0000,0.0000,สอง
401732,-0.1926,0.0637,-0.0198,0.2969,1.2851,-9.7262,1.8333,7.2797,172.4906,0.0000,0.0000,0.0000,0.0000,0.0000,สอง
401848,-0.1460,0.1245,0.0075,0.4968,1.0032,-9.7005,1.9413,7.1420,172.5962,0.0000,0.0000,0.0000,0.0000,0.0000,break_time
401964,-0.1253,0.0444,-0.0008,0.3418,1.3175,-9.7436,1.9462,7.1976,172.5412,0.0000,0.0000,0.0000,0.0000,0.0000,break_time
402080,-0.2472,0.0766,-0.0326,0.3226,1.2863,-9.6969,1.9405,7.2330,172.5085,0.0000,0.0000,0.0000,0.0000,0.0000,break_time
402196,-0.2778,0.0879,0.0502,0.2640,1.2714,-9.7268,1.9006,7.2541,172.4984,0.0000,0.0000,0.0000,0.0000,0.0000,break_time
402312,-0.2268,0.1033,-0.0346,0.2616,1.1936,-9.7172,1.8636,7.2288,172.5324,0.0000,0.0000,0.0000,0.0000,0.0000,break_time
402428,-0.1930,0.0687,-0.0010,0.2963,1.1912,-9.7501,1.8500,7.2020,172.5617,0.0000,0.0000,0.0000,0.0000,0.0000,break_time
402544,-0.1444,0.0671,0.0284,0.3316,1.2163,-9.7597,1.8581,7.1918,172.5696,0.0000,0.0000,0.0000,0.0000,0.0000,break_time
402660,-0.2090,0.0402,-0.0169,0.2771,1.2313,-9.7166,1.8344,7.1945,172.5729,0.0000,0.0000,0.0000,0.0000,0.0000,break_time
402776,-0.2188,0.0578,-0.0225,0.3220,1.2444,-9.7304,1.8390,7.2035,172.5631,0.0000,0.0000,0.0000,0.0000,0.0000,break_time
402892,-0.2119,0.0620,0.0214,0.2765,1.2504,-9.7418,1.8164,7.2143,172.5582,0.0000,0.0000,0.0000,0.0000,0.0000,break_time
403008,-0.1954,0.0691,-0.0195,0.3125,1.2235,-9.7184,1.8174,7.2100,172.5621,0.0000,0.0000,0.0000,0.0000,0.0000,break_time
403124,-0.2221,0.0930,0.0060,0.2981,1.2301,-9.7256,1.8099,7.2095,172.5644,0.0000,0.0000,0.0000,0.0000,0.0000,break_time
403240,-0.2124,0.0455,0.0169,0.2783,1.2516,-9.7651,1.7907,7.2187,172.5602,0.0000,0.0000,0.0000,0.0000,0.0000,break_time
403356,-0.1958,0.0724,-0.0202,0.3478,1.2235,-9.7154,1.8150,7.2141,172.5587,0.0000,0.0000,0.0000,0.0000,0.0000,break_time
403472,-0.2110,0.0582,0.0416,0.3292,1.2450,-9.7453,1.8255,7.2204,172.5500,0.0000,0.0000,0.0000,0.0000,0.0000,break_time
403588,-0.2232,0.0838,-0.0333,0.2885,1.2450,-9.7196,1.8116,7.2280,172.5461,0.0000,0.0000,0.0000,0.0000,0.0000,break_time
403704,-0.2348,0.0747,0.0255,0.3196,1.2313,-9.7190,1.8173,7.2268,172.5458,0.0000,0.0000,0.0000,0.0000,0.0000,break_time
403820,-0.2030,0.0598,0.0633,0.2712,1.1930,-9.7364,1.7939,7.2024,172.5753,0.0000,0.0000,0.0000,0.0000,0.0000,break_time
403936,-0.1936,0.0635,-0.0131,0.3137,1.2289,-9.7238,1.7978,7.2021,172.5746,0.0000,0.0000,0.0000,0.0000,0.0000,break_time
404052,-0.1884,0.0718,-0.0729,0.3340,1.2576,-9.7190,1.8132,7.2187,172.5547,0.0000,0.0000,0.0000,0.0000,0.0000,break_time
404168,-0.1778,0.0844,0.0387,0.3083,1.2307,-9.7340,1.8119,7.2170,172.5567,0.0000,0.0000,0.0000,0.0000,0.0000,break_time
404284,-0.1990,0.0698,-0.0439,0.3017,1.2618,-9.7034,1.8073,7.2358,172.5395,0.0000,0.0000,0.0000,0.0000,0.0000,break_time
404400,-0.1962,0.0769,0.0102,0.3071,1.2582,-9.7358,1.8057,7.2483,172.5278,0.0000,0.0000,0.0000,0.0000,0.0000,break_time
404516,-0.2158,0.0911,-0.0115,0.2951,1.2408,-9.7531,1.7970,7.2482,172.5301,0.0000,0.0000,0.0000,0.0000,0.0000,break_time
404632,-0.2168,0.0703,-0.0139,0.3202,1.2175,-9.6969,1.8050,7.2386,172.5374,0.0000,0.0000,0.0000,0.0000,0.0000,break_time
404748,-0.1937,0.0784,0.0098,0.3244,1.1798,-9.7418,1.8138,7.2049,172.5679,0.0000,0.0000,0.0000,0.0000,0.0000,break_time
404864,-0.1734,0.0604,0.0037,0.3029,1.2037,-9.7112,1.8098,7.1907,172.5827,0.0000,0.0000,0.0000,0.0000,0.0000,nothing
404980,-0.2154,0.0635,-0.0592,0.3071,1.2390,-9.7447,1.8078,7.1959,172.5782,0.0000,0.0000,0.0000,0.0000,0.0000,nothing
405096,-0.2418,0.0682,0.0200,0.3280,1.2588,-9.7250,1.8186,7.2134,172.5585,0.0000,0.0000,0.0000,0.0000,0.0000,nothing
405212,-0.1997,0.0479,-0.0204,0.2735,1.2061,-9.7244,1.7967,7.1989,172.5780,0.0000,0.0000,0.0000,0.0000,0.0000,nothing
405328,-0.1974,0.0712,-0.0195,0.3550,1.2420,-9.7268,1.8243,7.2062,172.5641,0.0000,0.0000,0.0000,0.0000,0.0000,nothing
405444,-0.1954,0.0672,0.0135,0.2879,1.2426,-9.7166,1.8103,7.2140,172.5600,0.0000,0.0000,0.0000,0.0000,0.0000,nothing
405560,-0.2138,0.0589,-0.0158,0.2712,1.2325,-9.6903,1.7883,7.2172,172.5623,0.0000,0.0000,0.0000,0.0000,0.0000,nothing
405676,-0.2461,0.0648,0.0185,0.3418,1.2115,-9.7148,1.8094,7.2059,172.5681,0.0000,0.0000,0.0000,0.0000,0.0000,nothing
405792,-0.2123,0.0604,0.0322,0.2873,1.2480,-9.7555,1.7958,7.2140,172.5635,0.0000,0.0000,0.0000,0.0000,0.0000,nothing
405908,-0.2323,0.0521,-0.0131,0.2885,1.2337,-9.7184,1.7849,7.2158,172.5645,0.0000,0.0000,0.0000,0.0000,0.0000,nothing
406024,-0.1881,0.0661,0.0151,0.3095,1.2031,-9.7130,1.7875,7.2000,172.5792,0.0000,0.0000,0.0000,0.0000,0.0000,nothing
406140,-0.1819,0.0633,0.0138,0.2957,1.1965,-9.7418,1.7813,7.1799,172.6002,0.0000,0.0000,0.0000,0.0000,0.0000,nothing
406256,-0.1757,0.0624,-0.0132,0.2688,1.2426,-9.7310,1.7601,7.1893,172.5961,0.0000,0.0000,0.0000,0.0000,0.0000,nothing
406372,-0.1749,0.0581,0.0095,0.3304,1.2396,-9.7226,1.7772,7.1966,172.5850,0.0000,0.0000,0.0000,0.0000,0.0000,nothing
406488,-0.2660,0.0473,-0.0128,0.2574,1.2803,-9.7190,1.7498,7.2271,172.5618,0.0000,0.0000,0.0000,0.0000,0.0000,nothing
406604,-0.2676,0.1016,0.0387,0.4226,1.4617,-9.5299,1.8248,7.3735,172.4016,0.0000,0.0000,0.0000,0.0000,0.0000,สาม
406720,-0.2887,0.1472,0.0420,0.2592,1.2462,-9.6999,1.7941,7.3680,172.4143,0.0000,0.0000,0.0000,0.0000,0.0000,สาม
406836,-0.1227,0.0645,-0.0015,0.3789,1.0708,-9.7687,1.8357,7.2559,172.5130,0.0000,0.0000,0.0000,0.0000,0.0000,สาม
406952,-0.1126,0.0530,-0.0031,0.3107,1.2750,-9.7274,1.8335,7.2767,172.4934,0.0000,0.0000,0.0000,0.0000,0.0000,สาม
407068,-0.2424,0.0513,0.0500,0.3304,1.3139,-9.7334,1.8429,7.3175,172.4516,0.0000,0.0000,0.0000,0.0000,0.0000,สาม
407184,-0.2285,0.0825,-0.0389,0.2891,1.2726,-9.7274,1.8274,7.3307,172.4425,0.0000,0.0000,0.0000,0.0000,0.0000,สาม
407300,-0.2016,0.0757,-0.0378,0.2646,1.2235,-9.7292,1.7992,7.3142,172.4655,0.0000,0.0000,0.0000,0.0000,0.0000,สาม
407416,-0.2166,0.0593,0.0161,0.3095,1.2193,-9.7280,1.8000,7.2968,172.4821,0.0000,0.0000,0.0000,0.0000,0.0000,สาม
407532,-0.1701,0.0690,0.0327,0.2502,1.2157,-9.7477,1.7659,7.2777,172.5088,0.0000,0.0000,0.0000,0.0000,0.0000,สาม
407648,-0.1922,0.0762,0.0128,0.3244,1.2253,-9.7507,1.7784,7.2658,172.5175,0.0000,0.0000,0.0000,0.0000,0.0000,สาม
407764,-0.2003,0.0566,-0.0675,0.3011,1.2809,-9.7447,1.7760,7.2878,172.4967,0.0000,0.0000,0.0000,0.0000,0.0000,สาม
407880,-0.2278,0.0766,-0.0279,0.2843,1.2283,-9.7316,1.7644,7.2780,172.5089,0.0000,0.0000,0.0000,0.0000,0.0000,สาม
407996,-0.2352,0.0897,0.0221,0.3166,1.2103,-9.7663,1.7723,7.2562,172.5282,0.0000,0.0000,0.0000,0.0000,0.0000,สาม
408112,-0.1659,0.0838,-0.0090,0.3214,1.2744,-9.7292,1.7827,7.2764,172.5061,0.0000,0.0000,0.0000,0.0000,0.0000,สาม
408228,-0.0496,0.0158,0.0168,0.3047,1.0936,-9.7549,1.7822,7.1881,172.5920,0.0000,0.0000,0.0000,0.0000,0.0000,break_time
408344,-0.3763,0.0744,-0.0049,0.3777,1.1798,-9.8579,1.8223,7.1509,172.6182,0.0000,0.0000,0.0000,0.0000,0.0000,break_time
408460,-0.1291,-0.0083,-0.0476,0.3376,1.0014,-9.7549,1.8373,7.0217,172.7395,0.0000,0.0000,0.0000,0.0000,0.0000,break_time
408576,-0.0488,0.0189,0.0442,0.2753,1.2432,-9.7268,1.8144,7.0476,172.7202,0.0000,0.0000,0.0000,0.0000,0.0000,break_time
408692,-0.2053,0.0626,-0.0286,0.3172,1.3282,-9.7268,1.8181,7.1200,172.6492,0.0000,0.0000,0.0000,0.0000,0.0000,break_time
408808,-0.2721,0.0971,-0.0136,0.3520,1.2558,-9.7268,1.8418,7.1432,172.6208,0.0000,0.0000,0.0000,0.0000,0.0000,break_time
408924,-0.2474,0.0740,0.0600,0.2747,1.2235,-9.7220,1.8183,7.1459,172.6241,0.0000,0.0000,0.0000,0.0000,0.0000,break_time
409040,-0.1906,0.0733,0.0477,0.2987,1.1924,-9.7406,1.8108,7.1289,172.6424,0.0000,0.0000,0.0000,0.0000,0.0000,break_time
409156,-0.2000,0.0725,-0.0082,0.3160,1.2277,-9.7250,1.8144,7.1351,172.6355,0.0000,0.0000,0.0000,0.0000,0.0000,break_time
409272,-0.2049,0.0371,-0.0147,0.2532,1.2564,-9.7310,1.7808,7.1570,172.6225,0.0000,0.0000,0.0000,0.0000,0.0000,break_time
409388,-0.2016,0.0661,0.1329,0.3077,1.2217,-9.7286,1.7824,7.1567,172.6224,0.0000,0.0000,0.0000,0.0000,0.0000,break_time
409504,-0.1875,0.0620,-0.0319,0.3166,1.2378,-9.7154,1.7893,7.1668,172.6110,0.0000,0.0000,0.0000,0.0000,0.0000,break_time
409620,-0.2079,0.0703,0.0679,0.2586,1.2259,-9.7310,1.7614,7.1678,172.6167,0.0000,0.0000,0.0000,0.0000,0.0000,break_time
409736,-0.2285,0.0740,-0.0368,0.3178,1.2193,-9.6873,1.7717,7.1681,172.6140,0.0000,0.0000,0.0000,0.0000,0.0000,break_time
409852,-0.1975,0.0986,0.0185,0.2891,1.2259,-9.7651,1.7628,7.1665,172.6177,0.0000,0.0000,0.0000,0.0000,0.0000,break_time
409968,-0.2393,0.0586,-0.0157,0.3071,1.2408,-9.7334,1.7657,7.1760,172.6078,0.0000,0.0000,0.0000,0.0000,0.0000,break_time
410084,-0.1861,0.0660,-0.0040,0.3256,1.2079,-9.7028,1.7799,7.1676,172.6124,0.0000,0.0000,0.0000,0.0000,0.0000,break_time
410200,-0.2053,0.0759,-0.0481,0.3065,1.2426,-9.7286,1.7809,7.1784,172.6017,0.0000,0.0000,0.0000,0.0000,0.0000,break_time
410316,-0.2007,0.0762,-0.0213,0.3148,1.2612,-9.7322,1.7865,7.1986,172.5807,0.0000,0.0000,0.0000,0.0000,0.0000,break_time
410432,-0.1894,0.0605,0.0264,0.3424,1.2301,-9.7537,1.8074,7.1971,172.5771,0.0000,0.0000,0.0000,0.0000,0.0000,break_time
410548,-0.2101,0.0703,0.0020,0.2700,1.2319,-9.7346,1.7842,7.1983,172.5816,0.0000,0.0000,0.0000,0.0000,0.0000,break_time
410664,-0.2031,0.0682,0.0256,0.3011,1.2492,-9.7352,1.7815,7.2094,172.5715,0.0000,0.0000,0.0000,0.0000,0.0000,break_time
410780,-0.2248,0.0522,-0.0004,0.3382,1.2372,-9.7286,1.8009,7.2128,172.5635,0.0000,0.0000,0.0000,0.0000,0.0000,break_time
410896,-0.2174,0.0732,-0.0532,0.3143,1.2145,-9.6969,1.8049,7.2050,172.5700,0.0000,0.0000,0.0000,0.0000,0.0000,break_time
411012,-0.1977,0.0454,-0.0571,0.3107,1.2307,-9.7064,1.8063,7.2068,172.5680,0.0000,0.0000,0.0000,0.0000,0.0000,break_time
411128,-0.2050,0.0588,0.0010,0.3047,1.2372,-9.7424,1.8034,7.2095,172.5660,0.0000,0.0000,0.0000,0.0000,0.0000,break_time
411244,-0.2041,0.0739,0.0774,0.2939,1.2576,-9.7424,1.7944,7.2238,172.5544,0.0000,0.0000,0.0000,0.0000,0.0000,nothing
411360,-0.1971,0.0765,0.0538,0.2712,1.2456,-9.7418,1.7731,7.2298,172.5537,0.0000,0.0000,0.0000,0.0000,0.0000,nothing
411476,-0.2270,0.0982,0.0800,0.3101,1.2636,-9.7477,1.7765,7.2451,172.5381,0.0000,0.0000,0.0000,0.0000,0.0000,nothing
411592,-0.2184,0.1009,0.0398,0.3208,1.2325,-9.7238,1.7863,7.2425,172.5381,0.0000,0.0000,0.0000,0.0000,0.0000,nothing
411708,-0.2174,0.0553,-0.0380,0.3023,1.1576,-9.7226,1.7845,7.1970,172.5828,0.0000,0.0000,0.0000,0.0000,0.0000,nothing
411824,-0.2019,0.1187,-0.0164,0.3603,1.5533,-9.4987,1.8200,7.4019,172.3752,0.0000,0.0000,0.0000,0.0000,0.0000,หนึ่ง
411940,-0.2083,0.1066,0.0042,0.3472,1.1343,-9.6837,1.8418,7.3296,172.4400,0.0000,0.0000,0.0000,0.0000,0.0000,หนึ่ง
412056,-0.0567,0.0837,0.0119,0.4405,1.1098,-9.7328,1.9153,7.2464,172.5021,0.0000,0.0000,0.0000,0.0000,0.0000,หนึ่ง
412172,-0.1470,0.0755,0.0116,0.3394,1.3444,-9.6969,1.9223,7.3107,172.4382,0.0000,0.0000,0.0000,0.0000,0.0000,หนึ่ง
412288,-0.2733,0.0922,-0.0187,0.2927,1.2875,-9.7136,1.9012,7.3343,172.4206,0.0000,0.0000,0.0000,0.0000,0.0000,หนึ่ง
412404,-0.2331,0.0676,-0.0503,0.2867,1.2265,-9.7238,1.8786,7.3195,172.4407,0.0000,0.0000,0.0000,0.0000,0.0000,หนึ่ง
412520,-0.2363,0.0694,0.0682,0.3280,1.2211,-9.7328,1.8823,7.3022,172.4566,0.0000,0.0000,0.0000,0.0000,0.0000,หนึ่ง
412636,-0.2067,0.0683,0.0399,0.3005,1.1965,-9.7531,1.8692,7.2710,172.4901,0.0000,0.0000,0.0000,0.0000,0.0000,หนึ่ง
412752,-0.1778,0.0638,-0.0124,0.3298,1.2325,-9.7034,1.8753,7.2673,172.4921,0.0000,0.0000,0.0000,0.0000,0.0000,หนึ่ง
412868,-0.2050,0.0600,-0.1307,0.3160,1.2355,-9.7633,1.8717,7.2614,172.4987,0.0000,0.0000,0.0000,0.0000,0.0000,หนึ่ง
412984,-0.2169,0.0917,0.0093,0.3041,1.2774,-9.7226,1.8622,7.2834,172.4798,0.0000,0.0000,0.0000,0.0000,0.0000,หนึ่ง
413100,-0.2187,0.0844,-0.0394,0.2795,1.2708,-9.7340,1.8390,7.2985,172.4709,0.0000,0.0000,0.0000,0.0000,0.0000,หนึ่ง
413216,-0.2142,0.0688,0.0597,0.2975,1.2079,-9.7573,1.8284,7.2740,172.4973,0.0000,0.0000,0.0000,0.0000,0.0000,หนึ่ง
413332,-0.3005,0.1977,-0.0368,0.3190,1.5425,-9.4293,1.8367,7.4705,172.3045,0.0000,0.0000,0.0000,0.0000,0.0000,break_time
413448,-0.1262,0.0990,0.0630,0.0766,0.9763,-9.6089,1.7002,7.3057,172.4970,0.0000,0.0000,0.0000,0.0000,0.0000,break_time
413564,-0.0442,0.0856,-0.0330,0.3460,1.2941,-9.6520,1.7335,7.3382,172.4576,0.0000,0.0000,0.0000,0.0000,0.0000,break_time
413680,-0.2296,0.1051,0.0074,0.3436,1.4258,-9.6831,1.7613,7.4418,172.3503,0.0000,0.0000,0.0000,0.0000,0.0000,break_time
413796,-0.2990,0.1350,0.0811,0.2837,1.1995,-9.7453,1.7507,7.3988,172.3946,0.0000,0.0000,0.0000,0.0000,0.0000,break_time
413912,-0.2217,0.0687,-0.0720,0.2867,1.1181,-9.7430,1.7430,7.3131,172.4799,0.0000,0.0000,0.0000,0.0000,0.0000,break_time
414028,-0.1358,0.0523,0.0108,0.2472,1.2121,-9.7376,1.7130,7.2910,172.5083,0.0000,0.0000,0.0000,0.0000,0.0000,break_time
414144,-0.2135,0.0777,-0.0052,0.3274,1.2684,-9.7112,1.7332,7.3056,172.4894,0.0000,0.0000,0.0000,0.0000,0.0000,break_time
414260,-0.2431,0.0547,-0.0440,0.3184,1.2229,-9.7011,1.7464,7.2932,172.4984,0.0000,0.0000,0.0000,0.0000,0.0000,break_time
414376,-0.1895,0.0517,0.0221,0.2867,1.2079,-9.7525,1.7388,7.2695,172.5233,0.0000,0.0000,0.0000,0.0000,0.0000,break_time
414492,-0.1821,0.0480,-0.0029,0.2777,1.2025,-9.7148,1.7275,7.2479,172.5469,0.0000,0.0000,0.0000,0.0000,0.0000,break_time
414608,-0.1941,0.0603,0.0185,0.3316,1.2420,-9.6945,1.7490,7.2528,172.5371,0.0000,0.0000,0.0000,0.0000,0.0000,break_time
414724,-0.1734,0.0920,-0.0649,0.2855,1.2803,-9.7579,1.7403,7.2748,172.5177,0.0000,0.0000,0.0000,0.0000,0.0000,break_time
414840,-0.2270,0.0639,0.0266,0.3346,1.2319,-9.7028,1.7621,7.2704,172.5168,0.0000,0.0000,0.0000,0.0000,0.0000,break_time
414956,-0.2435,0.0904,0.0204,0.2885,1.3252,-9.7052,1.7546,7.3207,172.4698,0.0000,0.0000,0.0000,0.0000,0.0000,break_time
415072,-0.2697,0.0901,0.0368,0.2688,1.2187,-9.7262,1.7362,7.3025,172.4918,0.0000,0.0000,0.0000,0.0000,0.0000,break_time
415188,-0.1989,0.0736,-0.0391,0.3208,1.1618,-9.7178,1.7504,7.2537,172.5359,0.0000,0.0000,0.0000,0.0000,0.0000,break_time
415304,-0.1797,0.0563,0.0630,0.2670,1.2193,-9.7519,1.7309,7.2407,172.5532,0.0000,0.0000,0.0000,0.0000,0.0000,break_time
415420,-0.1602,0.0881,-0.0353,0.2951,1.2355,-9.7537,1.7297,7.2382,172.5559,0.0000,0.0000,0.0000,0.0000,0.0000,break_time
415536,-0.1895,0.0654,0.0633,0.3334,1.2528,-9.7328,1.7513,7.2474,172.5418,0.0000,0.0000,0.0000,0.0000,0.0000,break_time
415652,-0.1969,0.0658,-0.0517,0.2933,1.2139,-9.7507,1.7472,7.2320,172.5578,0.0000,0.0000,0.0000,0.0000,0.0000,break_time
415768,-0.2234,0.0603,0.0740,0.2915,1.2821,-9.7118,1.7429,7.2605,172.5311,0.0000,0.0000,0.0000,0.0000,0.0000,break_time
415884,-0.2279,0.0765,-0.0289,0.3154,1.2600,-9.7316,1.7527,7.2718,172.5177,0.0000,0.0000,0.0000,0.0000,0.0000,break_time
416000,-0.2260,0.0887,-0.0329,0.2843,1.2241,-9.6987,1.7441,7.2637,172.5277,0.0000,0.0000,0.0000,0.0000,0.0000,break_time
416116,-0.2023,0.0705,-0.0033,0.3083,1.2450,-9.7400,1.7495,7.2654,172.5247,0.0000,0.0000,0.0000,0.0000,0.0000,break_time
416232,-0.2144,0.0818,-0.0173,0.3113,1.2672,-9.7513,1.7559,7.2789,172.5101,0.0000,0.0000,0.0000,0.0000,0.0000,break_time
416348,-0.2024,0.0513,0.0389,0.2753,1.2343,-9.7130,1.7414,7.2749,172.5173,0.0000,0.0000,0.0000,0.0000,0.0000,nothing
416464,-0.1861,0.0742,-0.0383,0.3292,1.2259,-9.7424,1.7593,7.2642,172.5236,0.0000,0.0000,0.0000,0.0000,0.0000,nothing
416580,-0.2288,0.0660,0.0204,0.3083,1.2702,-9.7154,1.7636,7.2822,172.5050,0.0000,0.0000,0.0000,0.0000,0.0000,nothing
416696,-0.2079,0.0603,-0.0309,0.2927,1.1977,-9.7489,1.7579,7.2541,172.5337,0.0000,0.0000,0.0000,0.0000,0.0000,nothing
416812,-0.2087,0.0661,-0.0622,0.3089,1.2522,-9.7220,1.7626,7.2622,172.5247,0.0000,0.0000,0.0000,0.0000,0.0000,nothing
416928,-0.2105,0.0868,0.0266,0.2825,1.2396,-9.7286,1.7513,7.2619,172.5277,0.0000,0.0000,0.0000,0.0000,0.0000,nothing
417044,-0.1887,0.0506,-0.0530,0.3322,1.2534,-9.7082,1.7705,7.2709,172.5143,0.0000,0.0000,0.0000,0.0000,0.0000,nothing
417160,-0.2241,0.0718,0.0113,0.2843,1.2079,-9.7268,1.7597,7.2514,172.5359,0.0000,0.0000,0.0000,0.0000,0.0000,nothing
417276,-0.1926,0.0671,-0.0060,0.2849,1.2540,-9.7250,1.7501,7.2607,172.5291,0.0000,0.0000,0.0000,0.0000,0.0000,nothing
417392,-0.2402,0.0612,0.0170,0.3238,1.2594,-9.7088,1.7645,7.2733,172.5134,0.0000,0.0000,0.0000,0.0000,0.0000,nothing
417508,-0.1899,0.0778,-0.0034,0.3089,1.2402,-9.7082,1.7688,7.2737,172.5121,0.0000,0.0000,0.0000,0.0000,0.0000,nothing
417624,-0.2219,0.0807,0.0095,0.3101,1.2331,-9.7226,1.7732,7.2687,172.5159,0.0000,0.0000,0.0000,0.0000,0.0000,nothing
417740,-0.2014,0.0499,-0.0060,0.3358,1.2097,-9.7244,1.7921,7.2506,172.5289,0.0000,0.0000,0.0000,0.0000,0.0000,nothing
417856,-0.2447,0.1234,-0.0263,0.1131,1.7664,-9.8675,1.6755,7.5462,172.2679,0.0000,0.0000,0.0000,0.0000,0.0000,error_redo
417972,-0.1144,0.1416,-0.0008,0.1496,0.8176,-9.6149,1.5982,7.2821,172.5428,0.0000,0.0000,0.0000,0.0000,0.0000,error_redo
418088,0.0097,0.0038,-0.0260,0.4968,1.1463,-9.7537,1.7283,7.2233,172.5707,0.0000,0.0000,0.0000,0.0000,0.0000,error_redo
418204,-0.1481,0.0560,0.0320,0.3352,1.3845,-9.7046,1.7513,7.3124,172.4786,0.0000,0.0000,0.0000,0.0000,0.0000,error_redo
418320,-0.3186,0.1118,-0.0164,0.3226,1.3474,-9.6939,1.7650,7.3719,172.4174,0.0000,0.0000,0.0000,0.0000,0.0000,error_redo
418436,-0.2470,0.1106,-0.0368,0.3005,1.1690,-9.7633,1.7635,7.3171,172.4712,0.0000,0.0000,0.0000,0.0000,0.0000,error_redo
418552,-0.2018,0.0573,0.0154,0.2927,1.2181,-9.7184,1.7583,7.2995,172.4895,0.0000,0.0000,0.0000,0.0000,0.0000,error_redo
418668,-0.1866,0.0582,-0.0143,0.2873,1.2097,-9.7394,1.7502,7.2772,172.5130,0.0000,0.0000,0.0000,0.0000,0.0000,error_redo
418784,-0.1613,0.0887,0.0753,0.3256,1.2474,-9.7076,1.7657,7.2813,172.5054,0.0000,0.0000,0.0000,0.0000,0.0000,error_redo
418900,-0.2259,0.0938,0.0174,0.2700,1.2815,-9.6963,1.7473,7.3058,172.4860,0.0000,0.0000,0.0000,0.0000,0.0000,error_redo
419016,-0.2433,0.0848,-0.0074,0.3160,1.2690,-9.7681,1.7564,7.3150,172.4748,0.0000,0.0000,0.0000,0.0000,0.0000,error_redo
419132,-0.2270,0.0868,0.0740,0.3125,1.2510,-9.7172,1.7634,7.3168,172.4715,0.0000,0.0000,0.0000,0.0000,0.0000,error_redo
419248,-0.1911,0.0459,-0.0564,0.2987,1.2109,-9.7334,1.7615,7.2939,172.4942,0.0000,0.0000,0.0000,0.0000,0.0000,error_redo
419364,-0.2159,0.0571,-0.0260,0.2909,1.2295,-9.7142,1.7555,7.2855,172.5037,0.0000,0.0000,0.0000,0.0000,0.0000,error_redo
419480,-0.2024,0.0725,0.0315,0.3154,1.2163,-9.7352,1.7641,7.2688,172.5180,0.0000,0.0000,0.0000,0.0000,0.0000,error_redo
419596,-0.1984,0.0761,-0.0230,0.3119,1.2384,-9.7082,1.7702,7.2685,172.5168,0.0000,0.0000,0.0000,0.0000,0.0000,error_redo
419712,-0.1824,0.0598,0.0052,0.3077,1.2468,-9.7603,1.7723,7.2693,172.5155,0.0000,0.0000,0.0000,0.0000,0.0000,error_redo
419828,-0.2041,0.0905,0.0499,0.3250,1.2343,-9.7280,1.7849,7.2650,172.5166,0.0000,0.0000,0.0000,0.0000,0.0000,error_redo
419944,-0.1979,0.0701,0.0120,0.2837,1.0972,-9.7442,1.7722,7.1807,172.6016,0.0000,0.0000,0.0000,0.0000,0.0000,error_redo
420060,-0.1973,0.0778,-0.0162,0.2783,1.2570,-9.7244,1.7575,7.1989,172.5875,0.0000,0.0000,0.0000,0.0000,0.0000,error_redo
420176,-0.1861,0.0815,-0.0209,0.3131,1.2480,-9.6915,1.7653,7.2124,172.5725,0.0000,0.0000,0.0000,0.0000,0.0000,error_redo
420292,-0.2256,0.0547,0.0333,0.3005,1.2121,-9.7442,1.7640,7.1998,172.5850,0.0000,0.0000,0.0000,0.0000,0.0000,error_redo
420408,-0.1926,0.0450,0.0237,0.2610,1.1977,-9.7166,1.7403,7.1824,172.6076,0.0000,0.0000,0.0000,0.0000,0.0000,error_redo
420524,-0.2024,0.0682,0.0082,0.2987,1.2169,-9.7436,1.7405,7.1757,172.6141,0.0000,0.0000,0.0000,0.0000,0.0000,error_redo
420640,-0.1924,0.0717,-0.0228,0.3214,1.2552,-9.7549,1.7537,7.1910,172.5961,0.0000,0.0000,0.0000,0.0000,0.0000,error_redo
420756,-0.1948,0.0883,-0.0892,0.2927,1.2247,-9.7322,1.7493,7.1888,172.5992,0.0000,0.0000,0.0000,0.0000,0.0000,error_redo
420872,-0.2341,0.0701,0.0025,0.3125,1.2313,-9.7226,1.7569,7.1913,172.5950,0.0000,0.0000,0.0000,0.0000,0.0000,error_redo
420988,-0.1817,0.0923,0.0586,0.3101,1.2037,-9.7268,1.7624,7.1773,172.6073,0.0000,0.0000,0.0000,0.0000,0.0000,error_redo
421104,-0.2030,0.0732,0.0060,0.2682,1.2223,-9.7226,1.7430,7.1758,172.6134,0.0000,0.0000,0.0000,0.0000,0.0000,cooldown
421220,-0.1973,0.0668,0.0363,0.3424,1.2241,-9.7214,1.7688,7.1755,172.6075,0.0000,0.0000,0.0000,0.0000,0.0000,cooldown
421336,-0.2114,0.0810,0.0604,0.3220,1.2642,-9.7124,1.7802,7.1991,172.5818,0.0000,0.0000,0.0000,0.0000,0.0000,cooldown
421452,-0.2661,0.0777,0.0232,0.3077,1.3540,-9.7579,1.7811,7.2691,172.5136,0.0000,0.0000,0.0000,0.0000,0.0000,cooldown
421568,-0.2507,0.0723,0.0266,0.2861,1.1337,-9.7561,1.7698,7.2046,172.5789,0.0000,0.0000,0.0000,0.0000,0.0000,cooldown
421684,-0.2018,0.0937,0.0151,0.1999,1.2097,-9.7058,1.7101,7.1946,172.6029,0.0000,0.0000,0.0000,0.0000,0.0000,cooldown
421800,-0.1205,0.0559,0.0192,0.3615,1.1744,-9.7436,1.7501,7.1619,172.6252,0.0000,0.0000,0.0000,0.0000,0.0000,cooldown
421916,-0.1436,0.0320,0.0574,0.2879,1.2229,-9.7142,1.7436,7.1629,172.6258,0.0000,0.0000,0.0000,0.0000,0.0000,cooldown
422032,-0.2079,0.0405,0.0008,0.2741,1.2241,-9.7292,1.7293,7.1634,172.6287,0.0000,0.0000,0.0000,0.0000,0.0000,cooldown
422148,-0.2046,0.0773,-0.0162,0.3244,1.3306,-9.6855,1.7464,7.2287,172.5611,0.0000,0.0000,0.0000,0.0000,0.0000,cooldown
422264,-0.2496,0.1329,-0.0324,0.2963,1.3055,-9.7364,1.7446,7.2693,172.5221,0.0000,0.0000,0.0000,0.0000,0.0000,cooldown
422380,-0.2551,0.0848,-0.0188,0.3166,1.1612,-9.7537,1.7548,7.2208,172.5668,0.0000,0.0000,0.0000,0.0000,0.0000,cooldown
422496,-0.1798,0.0502,0.0057,0.3137,1.2163,-9.7184,1.7627,7.2118,172.5737,0.0000,0.0000,0.0000,0.0000,0.0000,cooldown
422612,-0.1757,0.0570,0.0502,0.3220,1.2355,-9.6771,1.7754,7.2177,172.5649,0.0000,0.0000,0.0000,0.0000,0.0000,cooldown
422728,-0.2091,0.0834,0.0657,0.3196,1.2624,-9.7370,1.7844,7.2343,172.5466,0.0000,0.0000,0.0000,0.0000,0.0000,cooldown
422844,-0.2120,0.0806,0.0335,0.2807,1.2558,-9.7148,1.7701,7.2471,172.5376,0.0000,0.0000,0.0000,0.0000,0.0000,cooldown
422960,-0.2106,0.0780,0.0120,0.3705,1.2492,-9.7304,1.8094,7.2535,172.5219,0.0000,0.0000,0.0000,0.0000,0.0000,cooldown
423076,-0.1890,0.0525,-0.0424,0.2789,1.2486,-9.7244,1.7914,7.2595,172.5204,0.0000,0.0000,0.0000,0.0000,0.0000,cooldown
423192,-0.1934,0.0853,0.0090,0.4489,1.1894,-9.7292,1.8746,7.2299,172.5285,0.0000,0.0000,0.0000,0.0000,0.0000,cooldown
423308,-0.2361,0.0912,0.0038,0.2843,1.2959,-9.7346,1.8529,7.2649,172.5001,0.0000,0.0000,0.0000,0.0000,0.0000,cooldown
423424,-0.1663,0.0592,-0.0239,0.3077,1.1277,-9.7190,1.8478,7.2001,172.5642,0.0000,0.0000,0.0000,0.0000,0.0000,cooldown
423540,-0.1594,0.0680,0.0619,0.2813,1.2594,-9.7124,1.8275,7.2186,172.5513,0.0000,0.0000,0.0000,0.0000,0.0000,cooldown
423656,-0.2030,0.0660,0.0799,0.3095,1.2857,-9.6825,1.8263,7.2526,172.5186,0.0000,0.0000,0.0000,0.0000,0.0000,cooldown
423772,-0.2183,0.0909,0.0289,0.3226,1.2558,-9.7124,1.8323,7.2637,172.5064,0.0000,0.0000,0.0000,0.0000,0.0000,cooldown
423888,-0.1971,0.0721,-0.0267,0.3250,1.2366,-9.7070,1.8393,7.2629,172.5053,0.0000,0.0000,0.0000,0.0000,0.0000,cooldown
424004,-0.2038,0.0616,0.0125,0.3023,1.2037,-9.7262,1.8320,7.2418,172.5276,0.0000,0.0000,0.0000,0.0000,0.0000,cooldown
424120,-0.1843,0.0472,-0.1042,0.2933,1.2594,-9.7304,1.8201,7.2548,172.5180,0.0000,0.0000,0.0000,0.0000,0.0000,cooldown
424236,-0.1990,0.0783,0.0135,0.3202,1.2211,-9.7028,1.8256,7.2462,172.5249,0.0000,0.0000,0.0000,0.0000,0.0000,cooldown
424352,-0.1888,0.0843,0.0206,0.3160,1.2492,-9.7340,1.8275,7.2525,172.5184,0.0000,0.0000,0.0000,0.0000,0.0000,cooldown
424468,-0.2413,0.0658,0.0391,0.3412,1.2319,-9.7118,1.8443,7.2497,172.5169,0.0000,0.0000,0.0000,0.0000,0.0000,cooldown
424584,-0.2360,0.0714,0.0027,0.2724,1.2480,-9.7304,1.8189,7.2554,172.5177,0.0000,0.0000,0.0000,0.0000,0.0000,cooldown
424700,-0.2138,0.0871,0.0106,0.3160,1.2420,-9.7358,1.8214,7.2565,172.5160,0.0000,0.0000,0.0000,0.0000,0.0000,cooldown
424816,-0.1509,0.0453,-0.0255,0.2197,1.1858,-9.7447,1.7674,7.2244,172.5603,0.0000,0.0000,0.0000,0.0000,0.0000,cooldown
424932,-0.2069,0.0669,-0.0162,0.2831,1.2139,-9.7447,1.7558,7.2118,172.5754,0.0000,0.0000,0.0000,0.0000,0.0000,cooldown
425048,-0.1752,0.0697,0.0125,0.3226,1.2498,-9.7160,1.7689,7.2232,172.5612,0.0000,0.0000,0.0000,0.0000,0.0000,cooldown
425164,-0.2440,0.0823,0.0128,0.2526,1.2313,-9.6957,1.7401,7.2243,172.5669,0.0000,0.0000,0.0000,0.0000,0.0000,cooldown
425280,-0.2228,0.0522,-0.0052,0.3472,1.1953,-9.7579,1.7684,7.1998,172.5840,0.0000,0.0000,0.0000,0.0000,0.0000,cooldown
425396,-0.1966,0.0859,-0.0222,0.3268,1.2247,-9.7447,1.7822,7.1957,172.5846,0.0000,0.0000,0.0000,0.0000,0.0000,cooldown
425512,-0.1996,0.0905,0.0097,0.2682,1.2588,-9.7483,1.7602,7.2117,172.5744,0.0000,0.0000,0.0000,0.0000,0.0000,cooldown
425628,-0.2127,0.0979,-0.0194,0.3478,1.2672,-9.7406,1.7870,7.2313,172.5489,0.0000,0.0000,0.0000,0.0000,0.0000,cooldown
425744,-0.2083,0.0600,-0.0243,0.2945,1.2582,-9.7304,1.7802,7.2446,172.5376,0.0000,0.0000,0.0000,0.0000,0.0000,cooldown
425860,-0.1954,0.0856,-0.0016,0.3047,1.2498,-9.7346,1.7800,7.2514,172.5310,0.0000,0.0000,0.0000,0.0000,0.0000,cooldown
425976,-0.2228,0.0575,0.0228,0.2909,1.2630,-9.7088,1.7722,7.2671,172.5176,0.0000,0.0000,0.0000,0.0000,0.0000,cooldown
426092,-0.2034,0.0877,-0.0176,0.2963,1.2223,-9.7465,1.7678,7.2549,172.5306,0.0000,0.0000,0.0000,0.0000,0.0000,cooldown
426208,-0.2408,0.0943,0.0405,0.2957,1.2163,-9.7334,1.7637,7.2413,172.5447,0.0000,0.0000,0.0000,0.0000,0.0000,cooldown
426324,-0.1854,0.0947,0.0052,0.3190,1.2319,-9.7172,1.7738,7.2393,172.5443,0.0000,0.0000,0.0000,0.0000,0.0000,cooldown
426440,-0.1891,0.0631,0.0540,0.2963,1.2426,-9.7442,1.7692,7.2418,172.5430,0.0000,0.0000,0.0000,0.0000,0.0000,cooldown
426556,-0.2204,0.0727,0.0264,0.3083,1.3007,-9.7519,1.7718,7.2771,172.5081,0.0000,0.0000,0.0000,0.0000,0.0000,cooldown
426672,-0.2045,0.0776,0.0237,0.3328,1.2456,-9.7525,1.7885,7.2768,172.5043,0.0000,0.0000,0.0000,0.0000,0.0000,cooldown
426788,-0.2071,0.0592,-0.0204,0.2981,1.2355,-9.7262,1.7838,7.2727,172.5094,0.0000,0.0000,0.0000,0.0000,0.0000,cooldown
426904,-0.2428,0.0721,0.0389,0.3053,1.3552,-9.7346,1.7833,7.3377,172.4464,0.0000,0.0000,0.0000,0.0000,0.0000,cooldown
427020,-0.2817,0.0721,0.0219,0.2598,1.2055,-9.7424,1.7566,7.3090,172.4806,0.0000,0.0000,0.0000,0.0000,0.0000,cooldown
427136,-0.2019,0.0453,0.0318,0.2412,1.1020,-9.7561,1.7217,7.2224,172.5731,0.0000,0.0000,0.0000,0.0000,0.0000,cooldown
427252,-0.1500,0.0464,-0.0095,0.3520,1.1546,-9.7453,1.7549,7.1754,172.6109,0.0000,0.0000,0.0000,0.0000,0.0000,cooldown
427368,-0.1688,0.0624,0.0356,0.2729,1.2558,-9.7023,1.7393,7.1950,172.5956,0.0000,0.0000,0.0000,0.0000,0.0000,cooldown
427484,-0.1791,0.0874,-0.0053,0.3921,1.2474,-9.7118,1.7946,7.2069,172.5708,0.0000,0.0000,0.0000,0.0000,0.0000,cooldown
427600,-0.2173,0.0757,-0.0245,0.2975,1.2756,-9.7214,1.7889,7.2333,172.5464,0.0000,0.0000,0.0000,0.0000,0.0000,cooldown
427716,-0.2281,0.0776,0.0115,0.3017,1.2833,-9.7172,1.7863,7.2620,172.5193,0.0000,0.0000,0.0000,0.0000,0.0000,cooldown
427832,-0.2020,0.0849,-0.0222,0.2855,1.2217,-9.7214,1.7746,7.2518,172.5320,0.0000,0.0000,0.0000,0.0000,0.0000,cooldown
427948,-0.1990,0.0808,0.0050,0.3178,1.2372,-9.6879,1.7835,7.2540,172.5277,0.0000,0.0000,0.0000,0.0000,0.0000,cooldown
428064,-0.2108,0.0607,0.0160,0.3119,1.2372,-9.7142,1.7876,7.2541,172.5266,0.0000,0.0000,0.0000,0.0000,0.0000,cooldown
428180,-0.2101,0.0653,0.0158,0.3011,1.2067,-9.7555,1.7842,7.2334,172.5475,0.0000,0.0000,0.0000,0.0000,0.0000,cooldown
428296,-0.2209,0.0851,-0.0008,0.2783,1.2438,-9.7346,1.7683,7.2379,172.5470,0.0000,0.0000,0.0000,0.0000,0.0000,cooldown
428412,-0.2046,0.0852,0.0778,0.2909,1.1810,-9.7232,1.7616,7.2064,172.5792,0.0000,0.0000,0.0000,0.0000,0.0000,cooldown
428528,-0.2022,0.0743,-0.0721,0.2855,1.2229,-9.7262,1.7522,7.2021,172.5856,0.0000,0.0000,0.0000,0.0000,0.0000,cooldown
428644,-0.1933,0.0943,0.0472,0.2712,1.2450,-9.7453,1.7351,7.2096,172.5824,0.0000,0.0000,0.0000,0.0000,0.0000,cooldown
428760,-0.2112,0.0748,0.0523,0.3047,1.1971,-9.7388,1.7394,7.1891,172.6013,0.0000,0.0000,0.0000,0.0000,0.0000,cooldown
428876,-0.2090,0.0859,0.0821,0.2855,1.2031,-9.7501,1.7319,7.1733,172.6184,0.0000,0.0000,0.0000,0.0000,0.0000,cooldown
428992,-0.1673,0.0488,-0.0052,0.3119,1.2181,-9.7298,1.7409,7.1692,172.6203,0.0000,0.0000,0.0000,0.0000,0.0000,cooldown
429108,-0.2068,0.0588,-0.0010,0.2789,1.2037,-9.7214,1.7299,7.1579,172.6339,0.0000,0.0000,0.0000,0.0000,0.0000,cooldown
429224,-0.1997,0.0860,0.0239,0.3125,1.2229,-9.7352,1.7393,7.1577,172.6318,0.0000,0.0000,0.0000,0.0000,0.0000,cooldown
429340,-0.2020,0.0817,0.0105,0.2729,1.2414,-9.7322,1.7248,7.1686,172.6247,0.0000,0.0000,0.0000,0.0000,0.0000,cooldown
429456,-0.2189,0.0769,0.0076,0.3208,1.2283,-9.7316,1.7396,7.1707,172.6191,0.0000,0.0000,0.0000,0.0000,0.0000,cooldown
429572,-0.2083,0.0673,0.0143,0.3388,1.2115,-9.7064,1.7640,7.1647,172.6191,0.0000,0.0000,0.0000,0.0000,0.0000,cooldown
429688,-0.1808,0.0639,-0.0559,0.2975,1.2079,-9.7040,1.7618,7.1575,172.6267,0.0000,0.0000,0.0000,0.0000,0.0000,cooldown
429804,-0.2123,0.0942,-0.0230,0.3376,1.3013,-9.6747,1.7836,7.2071,172.5732,0.0000,0.0000,0.0000,0.0000,0.0000,cooldown
429920,-0.1864,0.0613,0.0083,0.3095,1.2361,-9.7172,1.7862,7.2110,172.5688,0.0000,0.0000,0.0000,0.0000,0.0000,cooldown
430036,-0.1913,0.0793,-0.0116,0.3442,1.1959,-9.6825,1.8096,7.1936,172.5799,0.0000,0.0000,0.0000,0.0000,0.0000,cooldown
430152,-0.1999,0.0691,-0.0083,0.3071,1.2325,-9.7184,1.8081,7.1967,172.5773,0.0000,0.0000,0.0000,0.0000,0.0000,cooldown
430268,-0.2438,0.0837,0.0176,0.3166,1.2462,-9.7322,1.8122,7.2063,172.5669,0.0000,0.0000,0.0000,0.0000,0.0000,cooldown
430384,-0.2180,0.0573,-0.0004,0.2843,1.2678,-9.7639,1.7963,7.2253,172.5524,0.0000,0.0000,0.0000,0.0000,0.0000,cooldown
430500,-0.1918,0.0721,0.0645,0.4549,1.2091,-9.7244,1.8825,7.2108,172.5450,0.0000,0.0000,0.0000,0.0000,0.0000,cooldown
430616,-0.2071,0.1031,0.0560,0.1592,1.2247,-9.7340,1.7872,7.2068,172.5726,0.0000,0.0000,0.0000,0.0000,0.0000,cooldown
430732,-0.1996,0.0703,-0.0090,0.3125,1.2139,-9.7196,1.7912,7.1977,172.5805,0.0000,0.0000,0.0000,0.0000,0.0000,cooldown
430848,-0.2108,0.0800,-0.0136,0.3047,1.2618,-9.7519,1.7895,7.2149,172.5642,0.0000,0.0000,0.0000,0.0000,0.0000,cooldown
430964,-0.2154,0.0804,-0.0162,0.3436,1.2366,-9.7208,1.8114,7.2179,172.5559,0.0000,0.0000,0.0000,0.0000,0.0000,nothing
431080,-0.2308,0.0511,0.0567,0.2939,1.3755,-9.7322,1.8015,7.3004,172.4782,0.0000,0.0000,0.0000,0.0000,0.0000,nothing
431196,-0.2331,0.0609,0.0213,0.2975,1.2067,-9.7406,1.7949,7.2763,172.5033,0.0000,0.0000,0.0000,0.0000,0.0000,nothing
431312,-0.2027,0.0702,0.0075,0.3160,1.2289,-9.7100,1.8004,7.2696,172.5085,0.0000,0.0000,0.0000,0.0000,0.0000,nothing
431428,-0.2074,0.0984,0.0176,0.3166,1.2259,-9.7202,1.8055,7.2610,172.5155,0.0000,0.0000,0.0000,0.0000,0.0000,nothing
431544,-0.1969,0.0702,0.0701,0.3675,1.2337,-9.7028,1.8400,7.2590,172.5090,0.0000,0.0000,0.0000,0.0000,0.0000,nothing
431660,-0.2082,0.0721,-0.1170,0.2945,1.1810,-9.7208,1.8283,7.2255,172.5443,0.0000,0.0000,0.0000,0.0000,0.0000,nothing
431776,-0.3873,0.1566,0.0804,0.4902,1.5862,-9.4904,1.9356,7.4471,172.3027,0.0000,0.0000,0.0000,0.0000,0.0000,nothing
431892,-0.2140,0.1286,0.0687,0.1042,0.8392,-9.7070,1.8039,7.1978,172.5773,0.0000,0.0000,0.0000,0.0000,0.0000,nothing
432008,0.0423,0.0435,-0.0459,0.4423,1.1463,-9.7388,1.8821,7.1485,172.6054,0.0000,0.0000,0.0000,0.0000,0.0000,nothing
432124,-0.1853,0.0784,-0.0514,0.2819,1.4102,-9.7011,1.8586,7.2606,172.5028,0.0000,0.0000,0.0000,0.0000,0.0000,nothing
432240,-0.3024,0.1003,0.0341,0.3789,1.2684,-9.7244,1.8941,7.2772,172.4778,0.0000,0.0000,0.0000,0.0000,0.0000,nothing
432356,-0.2375,0.0665,-0.0633,0.2538,1.2073,-9.7148,1.8532,7.2577,172.5070,0.0000,0.0000,0.0000,0.0000,0.0000,nothing
432472,-0.2049,0.0669,0.0195,0.3137,1.1074,-9.7675,1.8506,7.1781,172.5848,0.0000,0.0000,0.0000,0.0000,0.0000,สี่
432588,-0.1059,-0.0083,0.0232,0.2460,0.9852,-9.7837,1.8088,7.0346,172.7343,0.0000,0.0000,0.0000,0.0000,0.0000,สี่
432704,-0.1569,0.0556,-0.0091,0.3220,1.3013,-9.7256,1.8159,7.0929,172.6760,0.0000,0.0000,0.0000,0.0000,0.0000,สี่
432820,-0.2697,0.0986,-0.0200,0.3442,1.2917,-9.7334,1.8351,7.1392,172.6263,0.0000,0.0000,0.0000,0.0000,0.0000,สี่
432936,-0.2442,0.0420,0.0161,0.2658,1.2552,-9.7094,1.8071,7.1616,172.6116,0.0000,0.0000,0.0000,0.0000,0.0000,สี่
433052,-0.1988,0.0736,-0.0528,0.3214,1.2085,-9.7465,1.8139,7.1519,172.6193,0.0000,0.0000,0.0000,0.0000,0.0000,สี่
433168,-0.2029,0.0863,0.0060,0.2658,1.2420,-9.7334,1.7876,7.1637,172.6144,0.0000,0.0000,0.0000,0.0000,0.0000,สี่
433284,-0.2015,0.0618,-0.0131,0.3160,1.2289,-9.7358,1.7933,7.1663,172.6104,0.0000,0.0000,0.0000,0.0000,0.0000,สี่
433400,-0.2249,0.0688,0.0492,0.2801,1.2408,-9.7340,1.7775,7.1759,172.6050,0.0000,0.0000,0.0000,0.0000,0.0000,สี่
433516,-0.1956,0.0727,-0.0215,0.3322,1.2229,-9.7585,1.7933,7.1721,172.6048,0.0000,0.0000,0.0000,0.0000,0.0000,สี่
433632,-0.2072,0.0901,-0.0258,0.2735,1.2109,-9.7094,1.7741,7.1655,172.6158,0.0000,0.0000,0.0000,0.0000,0.0000,สี่
433748,-0.2084,0.0518,-0.0168,0.3424,1.2043,-9.7064,1.7971,7.1559,172.6196,0.0000,0.0000,0.0000,0.0000,0.0000,สี่
433864,-0.1905,0.0844,-0.0262,0.3101,1.2349,-9.7064,1.7989,7.1649,172.6104,0.0000,0.0000,0.0000,0.0000,0.0000,สี่
433980,-0.2099,0.0397,-0.0151,0.3095,1.2594,-9.7495,1.7993,7.1842,172.5916,0.0000,0.0000,0.0000,0.0000,0.0000,สี่
434096,-0.2083,0.0833,0.0695,0.3029,1.2223,-9.7334,1.7962,7.1812,172.5953,0.0000,0.0000,0.0000,0.0000,0.0000,สี่
434212,-0.1806,0.0553,-0.0170,0.3256,1.2678,-9.7477,1.8064,7.2037,172.5709,0.0000,0.0000,0.0000,0.0000,0.0000,สี่
434328,-0.2237,0.0822,0.0926,0.3095,1.2199,-9.6963,1.8071,7.2001,172.5743,0.0000,0.0000,0.0000,0.0000,0.0000,สี่
434444,-0.2104,0.0635,-0.0304,0.3095,1.2355,-9.7340,1.8070,7.2030,172.5714,0.0000,0.0000,0.0000,0.0000,0.0000,สี่
434560,-0.2161,0.0776,0.0228,0.2999,1.2325,-9.7172,1.8017,7.2052,172.5706,0.0000,0.0000,0.0000,0.0000,0.0000,สี่
434676,-0.1925,0.0747,0.0091,0.2987,1.2313,-9.7064,1.7964,7.2073,172.5699,0.0000,0.0000,0.0000,0.0000,0.0000,สี่
434792,-0.2210,0.0777,0.0199,0.3143,1.0780,-9.7124,1.8010,7.1198,172.6536,0.0000,0.0000,0.0000,0.0000,0.0000,สี่
434908,-0.2150,0.0446,0.0094,0.2879,1.2576,-9.7208,1.7891,7.1447,172.6324,0.0000,0.0000,0.0000,0.0000,0.0000,สี่
435024,-0.1945,0.0802,-0.0176,0.3208,1.2073,-9.7178,1.7978,7.1380,172.6367,0.0000,0.0000,0.0000,0.0000,0.0000,สี่
435140,-0.1933,0.0755,0.0204,0.2747,1.2151,-9.7112,1.7789,7.1372,172.6423,0.0000,0.0000,0.0000,0.0000,0.0000,สี่
435256,-0.1883,0.0769,0.0195,0.3292,1.2253,-9.7585,1.7928,7.1387,172.6373,0.0000,0.0000,0.0000,0.0000,0.0000,สี่
435372,-0.1816,0.0559,0.0536,0.3166,1.2175,-9.7298,1.7984,7.1377,172.6369,0.0000,0.0000,0.0000,0.0000,0.0000,สี่
435488,-0.2056,0.0658,-0.0038,0.3160,1.2905,-9.7382,1.8029,7.1785,172.5962,0.0000,0.0000,0.0000,0.0000,0.0000,สี่
435604,-0.2553,0.0740,-0.0232,0.3160,1.2618,-9.6975,1.8077,7.2016,172.5727,0.0000,0.0000,0.0000,0.0000,0.0000,สี่
435720,-0.1523,0.0598,0.0217,0.3514,0.8045,-9.6250,1.8351,6.9621,172.7978,0.0000,0.0000,0.0000,0.0000,0.0000,nothing
435836,0.1213,0.0849,-0.0474,0.3735,1.4880,-9.6268,1.8711,7.1432,172.6134,0.0000,0.0000,0.0000,0.0000,0.0000,nothing
435952,-0.4241,0.1746,0.0972,0.4130,1.4048,-9.7238,1.9249,7.2507,172.4955,0.0000,0.0000,0.0000,0.0000,0.0000,nothing
436068,-0.2949,0.0915,0.0718,0.2520,1.1098,-9.7615,1.8792,7.1738,172.5816,0.0000,0.0000,0.0000,0.0000,0.0000,nothing
436184,-0.1456,0.0191,-0.0125,0.3137,1.1630,-9.7160,1.8749,7.1387,172.6167,0.0000,0.0000,0.0000,0.0000,0.0000,nothing
436300,-0.1643,0.0519,0.0333,0.2891,1.2630,-9.7130,1.8565,7.1653,172.5956,0.0000,0.0000,0.0000,0.0000,0.0000,nothing
436416,-0.1719,0.0863,-0.0233,0.3310,1.2163,-9.7501,1.8638,7.1595,172.5995,0.0000,0.0000,0.0000,0.0000,0.0000,nothing
436532,-0.1547,0.0389,-0.0438,0.2724,1.2492,-9.7226,1.8366,7.1754,172.5909,0.0000,0.0000,0.0000,0.0000,0.0000,nothing
436648,-0.2327,0.0672,-0.0838,0.3226,1.2672,-9.7094,1.8416,7.2010,172.5648,0.0000,0.0000,0.0000,0.0000,0.0000,nothing
436764,-0.2144,0.0813,-0.0397,0.3166,1.2253,-9.7322,1.8423,7.1981,172.5674,0.0000,0.0000,0.0000,0.0000,0.0000,nothing
436880,-0.2038,0.0849,0.0199,0.3035,1.2480,-9.7058,1.8357,7.2107,172.5569,0.0000,0.0000,0.0000,0.0000,0.0000,nothing
436996,-0.2342,0.0808,0.0269,0.2706,1.2690,-9.7406,1.8099,7.2316,172.5430,0.0000,0.0000,0.0000,0.0000,0.0000,nothing
437112,-0.2372,0.0766,-0.0052,0.3196,1.1876,-9.7334,1.8156,7.2037,172.5687,0.0000,0.0000,0.0000,0.0000,0.0000,nothing
437228,-0.1862,0.0702,-0.0330,0.2574,1.2145,-9.6885,1.7851,7.1976,172.5820,0.0000,0.0000,0.0000,0.0000,0.0000,nothing
437344,-0.1969,0.0710,0.0030,0.3178,1.2420,-9.7118,1.7926,7.2063,172.5719,0.0000,0.0000,0.0000,0.0000,0.0000,nothing
437460,-0.2174,0.0826,0.0161,0.3107,1.2043,-9.7591,1.7943,7.1887,172.5885,0.0000,0.0000,0.0000,0.0000,0.0000,nothing
437576,-0.2003,0.0897,-0.0609,0.3113,1.2396,-9.7328,1.7965,7.1953,172.5815,0.0000,0.0000,0.0000,0.0000,0.0000,nothing
437692,-0.2234,0.0834,0.0713,0.2783,1.2648,-9.7106,1.7797,7.2176,172.5640,0.0000,0.0000,0.0000,0.0000,0.0000,nothing
437808,-0.2146,0.0701,0.0258,0.3220,1.2217,-9.7352,1.7897,7.2107,172.5682,0.0000,0.0000,0.0000,0.0000,0.0000,nothing
437924,-0.1913,0.0818,0.0168,0.3190,1.2193,-9.7268,1.7972,7.2037,172.5732,0.0000,0.0000,0.0000,0.0000,0.0000,nothing
438040,-0.1722,0.0669,-0.0412,0.2897,1.2313,-9.7585,1.7861,7.2022,172.5774,0.0000,0.0000,0.0000,0.0000,0.0000,nothing
438156,-0.2046,0.0650,0.0335,0.3119,1.2247,-9.7400,1.7895,7.1982,172.5804,0.0000,0.0000,0.0000,0.0000,0.0000,nothing
438272,-0.2485,0.0909,0.0305,0.2903,1.2612,-9.7430,1.7798,7.2157,172.5658,0.0000,0.0000,0.0000,0.0000,0.0000,nothing
438388,-0.1838,0.0727,0.0450,0.2867,1.2235,-9.7106,1.7696,7.2119,172.5719,0.0000,0.0000,0.0000,0.0000,0.0000,nothing
438504,-0.2035,0.0459,-0.0104,0.3053,1.0726,-9.7346,1.7712,7.1193,172.6614,0.0000,0.0000,0.0000,0.0000,0.0000,nothing
438620,-0.1873,0.0699,0.0014,0.3340,1.2091,-9.7286,1.7892,7.1155,172.6608,0.0000,0.0000,0.0000,0.0000,0.0000,nothing
438736,-0.1879,0.0559,-0.0061,0.2747,1.2462,-9.7609,1.7702,7.1313,172.6501,0.0000,0.0000,0.0000,0.0000,0.0000,nothing
438852,-0.2187,0.0858,0.0455,0.3256,1.2319,-9.7465,1.7830,7.1381,172.6403,0.0000,0.0000,0.0000,0.0000,0.0000,nothing
438968,-0.2026,0.0598,-0.0459,0.3514,1.2097,-9.7190,1.8101,7.1333,172.6382,0.0000,0.0000,0.0000,0.0000,0.0000,nothing
439084,-0.2202,0.0817,-0.0108,0.2418,1.2516,-9.7064,1.7708,7.1545,172.6274,0.0000,0.0000,0.0000,0.0000,0.0000,nothing
439200,-0.2069,0.1021,0.0239,0.3214,1.2474,-9.7346,1.7813,7.1689,172.6108,0.0000,0.0000,0.0000,0.0000,0.0000,nothing
439316,-0.1907,0.0548,0.0337,0.3520,1.2229,-9.7154,1.8090,7.1690,172.6040,0.0000,0.0000,0.0000,0.0000,0.0000,nothing
439432,-0.2097,0.0773,-0.0282,0.2741,1.2325,-9.7471,1.7879,7.1724,172.6058,0.0000,0.0000,0.0000,0.0000,0.0000,nothing
439548,-0.1835,0.0596,0.0593,0.3400,1.2187,-9.7190,1.8079,7.1695,172.6038,0.0000,0.0000,0.0000,0.0000,0.0000,nothing
439664,-0.1830,0.0733,-0.0483,0.2496,1.2289,-9.7358,1.7728,7.1717,172.6102,0.0000,0.0000,0.0000,0.0000,0.0000,nothing
439780,-0.2020,0.0548,-0.0115,0.3472,1.2402,-9.7202,1.7984,7.1812,172.5947,0.0000,0.0000,0.0000,0.0000,0.0000,nothing
439896,-0.2049,0.0645,-0.0303,0.2921,1.2319,-9.7166,1.7894,7.1853,172.5930,0.0000,0.0000,0.0000,0.0000,0.0000,nothing
440012,-0.1847,0.0540,-0.0100,0.3400,1.2055,-9.7160,1.8093,7.1737,172.5994,0.0000,0.0000,0.0000,0.0000,0.0000,nothing
440128,-0.1823,0.0416,0.0041,0.2652,1.2624,-9.7292,1.7832,7.1953,172.5847,0.0000,0.0000,0.0000,0.0000,0.0000,nothing
440244,-0.2248,0.0939,0.0770,0.3316,1.1906,-9.7406,1.7984,7.1722,172.6034,0.0000,0.0000,0.0000,0.0000,0.0000,nothing
440360,-0.2048,0.0435,-0.0029,0.2562,1.2516,-9.7430,1.7679,7.1868,172.5967,0.0000,0.0000,0.0000,0.0000,0.0000,nothing
440476,-0.1815,0.0858,0.0079,0.3047,1.2049,-9.7304,1.7691,7.1737,172.6091,0.0000,0.0000,0.0000,0.0000,0.0000,nothing
440592,-0.2612,0.0893,-0.0329,0.3017,1.2594,-9.7364,1.7682,7.1930,172.5906,0.0000,0.0000,0.0000,0.0000,0.0000,nothing
440708,-0.2009,0.0987,0.0161,0.2747,1.2061,-9.7064,1.7523,7.1818,172.6053,0.0000,0.0000,0.0000,0.0000,0.0000,nothing
440824,-0.1772,0.0733,0.0185,0.3436,1.0625,-9.7262,1.7782,7.0868,172.6913,0.0000,0.0000,0.0000,0.0000,0.0000,สี่
440940,-0.0110,0.0203,-0.0372,0.4364,1.1235,-9.7226,1.8556,7.0368,172.7203,0.0000,0.0000,0.0000,0.0000,0.0000,สี่
441056,-0.2476,0.0803,0.0203,0.4148,1.4288,-9.7513,1.9114,7.1666,172.5803,0.0000,0.0000,0.0000,0.0000,0.0000,สี่
441172,-0.2838,0.0941,0.0123,0.3466,1.2450,-9.7220,1.9227,7.1793,172.5651,0.0000,0.0000,0.0000,0.0000,0.0000,สี่
441288,-0.2143,0.0930,0.0619,0.2987,1.1977,-9.7388,1.9048,7.1622,172.5863,0.0000,0.0000,0.0000,0.0000,0.0000,สี่
441404,-0.1952,0.0526,-0.0202,0.2753,1.1894,-9.7208,1.8754,7.1433,172.6122,0.0000,0.0000,0.0000,0.0000,0.0000,สี่
441520,-0.2099,0.0649,0.0158,0.3053,1.2037,-9.7531,1.8658,7.1322,172.6254,0.0000,0.0000,0.0000,0.0000,0.0000,สี่
441636,-0.2112,0.0725,0.0254,0.1652,1.2528,-9.7214,1.7759,7.1532,172.6274,0.0000,0.0000,0.0000,0.0000,0.0000,สี่
441752,-0.2469,0.0697,-0.0234,0.2975,1.2265,-9.7178,1.7722,7.1569,172.6247,0.0000,0.0000,0.0000,0.0000,0.0000,สี่
441868,-0.1684,0.0872,0.0217,0.3256,1.2145,-9.7034,1.7857,7.1542,172.6240,0.0000,0.0000,0.0000,0.0000,0.0000,สี่
441984,-0.1843,0.0852,-0.0029,0.3095,1.2277,-9.7082,1.7883,7.1592,172.6186,0.0000,0.0000,0.0000,0.0000,0.0000,สี่
442100,-0.1824,0.1025,0.0025,0.3083,1.2666,-9.7340,1.7893,7.1843,172.5940,0.0000,0.0000,0.0000,0.0000,0.0000,สี่
442216,-0.2334,0.0663,-0.0479,0.2819,1.2474,-9.6885,1.7757,7.1992,172.5828,0.0000,0.0000,0.0000,0.0000,0.0000,สี่
442332,-0.3093,0.1046,0.0718,0.2322,1.4234,-9.8309,1.7316,7.3041,172.4912,0.0000,0.0000,0.0000,0.0000,0.0000,break_time
442448,-0.2431,0.1036,0.0014,0.2310,1.1002,-9.6909,1.6944,7.2217,172.5801,0.0000,0.0000,0.0000,0.0000,0.0000,break_time
442564,-0.1928,0.0792,0.0029,0.3023,1.2271,-9.7160,1.7017,7.2190,172.5811,0.0000,0.0000,0.0000,0.0000,0.0000,break_time
442680,-0.2114,0.0658,-0.0420,0.3388,1.2540,-9.7268,1.7294,7.2313,172.5626,0.0000,0.0000,0.0000,0.0000,0.0000,break_time
442796,-0.2483,0.0634,0.0277,0.2933,1.2630,-9.7214,1.7278,7.2481,172.5467,0.0000,0.0000,0.0000,0.0000,0.0000,break_time
442912,-0.1896,0.0912,-0.0217,0.2825,1.1924,-9.7262,1.7202,7.2219,172.5739,0.0000,0.0000,0.0000,0.0000,0.0000,break_time
443028,-0.1857,0.0571,0.0421,0.3125,1.2588,-9.7244,1.7307,7.2369,172.5569,0.0000,0.0000,0.0000,0.0000,0.0000,break_time
443144,-0.2061,0.0697,-0.0100,0.3119,1.2169,-9.7615,1.7392,7.2234,172.5680,0.0000,0.0000,0.0000,0.0000,0.0000,break_time
443260,-0.1794,0.0885,0.0356,0.2610,1.2265,-9.7160,1.7180,7.2203,172.5760,0.0000,0.0000,0.0000,0.0000,0.0000,break_time
443376,-0.2071,0.0883,-0.0113,0.2999,1.2295,-9.7376,1.7212,7.2175,172.5780,0.0000,0.0000,0.0000,0.0000,0.0000,break_time
443492,-0.2207,0.0855,0.0089,0.2939,1.2522,-9.7148,1.7209,7.2299,172.5660,0.0000,0.0000,0.0000,0.0000,0.0000,break_time
443608,-0.1921,0.0705,-0.0011,0.3208,1.2229,-9.7645,1.7356,7.2203,172.5718,0.0000,0.0000,0.0000,0.0000,0.0000,break_time
443724,-0.1881,0.1007,-0.0320,0.3274,1.2265,-9.7453,1.7530,7.2152,172.5727,0.0000,0.0000,0.0000,0.0000,0.0000,break_time
443840,-0.2000,0.0878,-0.1535,0.3101,1.2528,-9.7005,1.7593,7.2292,172.5576,0.0000,0.0000,0.0000,0.0000,0.0000,break_time
443956,-0.1772,0.0671,0.0202,0.2891,1.2594,-9.6999,1.7527,7.2457,172.5432,0.0000,0.0000,0.0000,0.0000,0.0000,break_time
444072,-0.2410,0.0371,-0.0031,0.2837,1.2343,-9.7346,1.7430,7.2434,172.5477,0.0000,0.0000,0.0000,0.0000,0.0000,break_time
444188,-0.2237,0.0784,-0.0149,0.2861,1.2498,-9.7382,1.7356,7.2501,172.5429,0.0000,0.0000,0.0000,0.0000,0.0000,break_time
444304,-0.2232,0.0973,0.0286,0.3101,1.2157,-9.7477,1.7429,7.2356,172.5553,0.0000,0.0000,0.0000,0.0000,0.0000,break_time
444420,-0.2112,0.0492,0.0274,0.3137,1.1900,-9.7130,1.7521,7.2102,172.5777,0.0000,0.0000,0.0000,0.0000,0.0000,break_time
444536,-0.2146,0.0859,-0.0618,0.3035,1.2307,-9.7262,1.7542,7.2100,172.5775,0.0000,0.0000,0.0000,0.0000,0.0000,break_time
444652,-0.2064,0.0728,0.0048,0.2831,1.2157,-9.7376,1.7441,7.2003,172.5893,0.0000,0.0000,0.0000,0.0000,0.0000,break_time
444768,-0.2022,0.0641,0.0414,0.2885,1.2378,-9.7310,1.7381,7.2049,172.5862,0.0000,0.0000,0.0000,0.0000,0.0000,break_time
444884,-0.2046,0.0828,0.0170,0.3394,1.1971,-9.7076,1.7630,7.1871,172.5977,0.0000,0.0000,0.0000,0.0000,0.0000,break_time
445000,-0.1962,0.0491,0.0308,0.2765,1.1720,-9.7214,1.7485,7.1556,172.6317,0.0000,0.0000,0.0000,0.0000,0.0000,break_time
445116,-0.1992,0.0843,0.0357,0.3280,1.2337,-9.7346,1.7651,7.1619,172.6216,0.0000,0.0000,0.0000,0.0000,0.0000,break_time
445232,-0.2086,0.0751,0.0552,0.2867,1.2325,-9.7118,1.7564,7.1686,172.6172,0.0000,0.0000,0.0000,0.0000,0.0000,break_time
445348,-0.1645,0.0672,0.0076,0.3023,1.2145,-9.7274,1.7573,7.1631,172.6223,0.0000,0.0000,0.0000,0.0000,0.0000,nothing
445464,-0.2079,0.0739,0.0609,0.3059,1.1786,-9.7172,1.7606,7.1380,172.6459,0.0000,0.0000,0.0000,0.0000,0.0000,nothing
445580,-0.1962,0.0968,-0.0416,0.3639,1.2001,-9.7076,1.7975,7.1285,172.6461,0.0000,0.0000,0.0000,0.0000,0.0000,nothing
445696,-0.1843,0.0540,0.0372,0.1538,1.0858,-9.6843,1.7087,7.0558,172.7382,0.0000,0.0000,0.0000,0.0000,0.0000,nothing
445812,-0.1785,0.0646,-0.0064,0.3849,1.0834,-9.7376,1.7629,6.9846,172.7943,0.0000,0.0000,0.0000,0.0000,0.0000,nothing
445928,-0.1855,0.0530,0.0206,0.3867,1.0888,-9.7262,1.8128,6.9244,172.8400,0.0000,0.0000,0.0000,0.0000,0.0000,nothing
446044,-0.2041,0.0509,0.0124,0.3089,1.2522,-9.7292,1.8119,6.9651,172.8009,0.0000,0.0000,0.0000,0.0000,0.0000,nothing
446160,-0.2057,0.0615,0.0334,0.3089,1.2067,-9.7495,1.8108,6.9738,172.7927,0.0000,0.0000,0.0000,0.0000,0.0000,nothing
446276,-0.1862,0.0830,-0.0618,0.3573,1.2163,-9.7621,1.8378,6.9862,172.7738,0.0000,0.0000,0.0000,0.0000,0.0000,nothing
446392,-0.2256,0.0717,-0.0042,0.2598,1.2803,-9.7070,1.8061,7.0387,172.7310,0.0000,0.0000,0.0000,0.0000,0.0000,nothing
446508,-0.1940,0.0792,-0.0218,0.3262,1.2361,-9.7058,1.8164,7.0601,172.7077,0.0000,0.0000,0.0000,0.0000,0.0000,nothing
446624,-0.1842,0.0393,-0.0750,0.3011,1.2307,-9.7316,1.8106,7.0745,172.6952,0.0000,0.0000,0.0000,0.0000,0.0000,nothing
446740,-0.1880,0.0603,0.0420,0.2945,1.2408,-9.6993,1.8020,7.0957,172.6767,0.0000,0.0000,0.0000,0.0000,0.0000,nothing
446856,-0.1860,0.0648,-0.0559,0.3394,1.2043,-9.7226,1.8202,7.0918,172.6759,0.0000,0.0000,0.0000,0.0000,0.0000,nothing
446972,-0.1453,0.0725,-0.0179,0.2628,1.2480,-9.7130,1.7919,7.1146,172.6610,0.0000,0.0000,0.0000,0.0000,0.0000,nothing
447088,-0.1949,0.0823,0.0140,0.2909,1.2414,-9.7364,1.7825,7.1295,172.6488,0.0000,0.0000,0.0000,0.0000,0.0000,nothing
447204,-0.2072,0.0691,-0.0424,0.2849,1.2073,-9.7549,1.7703,7.1217,172.6593,0.0000,0.0000,0.0000,0.0000,0.0000,nothing
447320,-0.2393,0.0409,0.0034,0.3125,1.2247,-9.7292,1.7757,7.1266,172.6532,0.0000,0.0000,0.0000,0.0000,0.0000,nothing
447436,-0.2195,0.0859,0.0247,0.2915,1.2624,-9.7256,1.7684,7.1532,172.6292,0.0000,0.0000,0.0000,0.0000,0.0000,nothing
447552,-0.1994,0.0376,-0.0549,0.3143,1.2187,-9.6957,1.7757,7.1539,172.6267,0.0000,0.0000,0.0000,0.0000,0.0000,nothing
447668,-0.1990,0.0687,0.0984,0.2975,1.2516,-9.7627,1.7713,7.1688,172.6133,0.0000,0.0000,0.0000,0.0000,0.0000,nothing
447784,-0.1885,0.0590,0.0035,0.2975,1.2013,-9.7286,1.7680,7.1556,172.6270,0.0000,0.0000,0.0000,0.0000,0.0000,nothing
447900,-0.1821,0.0770,0.0289,0.3077,1.2343,-9.7040,1.7713,7.1645,172.6176,0.0000,0.0000,0.0000,0.0000,0.0000,nothing
448016,-0.2234,0.0695,0.0757,0.3340,1.2169,-9.7088,1.7897,7.1621,172.6154,0.0000,0.0000,0.0000,0.0000,0.0000,nothing
448132,-0.1966,0.0653,0.0035,0.3113,1.2175,-9.7202,1.7927,7.1594,172.6173,0.0000,0.0000,0.0000,0.0000,0.0000,nothing
448248,-0.2108,0.0533,-0.0683,0.2891,1.2432,-9.7094,1.7826,7.1728,172.6067,0.0000,0.0000,0.0000,0.0000,0.0000,nothing
448364,-0.2286,0.0909,0.0892,0.3154,1.2540,-9.7256,1.7886,7.1899,172.5887,0.0000,0.0000,0.0000,0.0000,0.0000,nothing
448480,-0.2187,0.0638,0.0578,0.3334,1.2139,-9.7232,1.8046,7.1821,172.5923,0.0000,0.0000,0.0000,0.0000,0.0000,nothing
448596,-0.1955,0.0611,-0.0428,0.2993,1.2468,-9.7172,1.7991,7.1947,172.5814,0.0000,0.0000,0.0000,0.0000,0.0000,nothing
448712,-0.1817,0.0863,0.0162,0.3196,1.2372,-9.7346,1.8058,7.1992,172.5754,0.0000,0.0000,0.0000,0.0000,0.0000,nothing
448828,-0.2035,0.0675,0.0290,0.2981,1.2145,-9.7172,1.7996,7.1914,172.5846,0.0000,0.0000,0.0000,0.0000,0.0000,nothing
448944,-0.2004,0.0628,0.0284,0.2807,1.2552,-9.7412,1.7833,7.2062,172.5741,0.0000,0.0000,0.0000,0.0000,0.0000,nothing
449060,-0.1936,0.0678,-0.0477,0.3190,1.2618,-9.7274,1.7913,7.2243,172.5546,0.0000,0.0000,0.0000,0.0000,0.0000,nothing
449176,-0.2184,0.0596,0.0552,0.2682,1.2660,-9.7334,1.7686,7.2427,172.5423,0.0000,0.0000,0.0000,0.0000,0.0000,nothing
449292,-0.2121,0.0678,0.0131,0.2993,1.2049,-9.7519,1.7662,7.2224,172.5625,0.0000,0.0000,0.0000,0.0000,0.0000,nothing
449408,-0.2029,0.0657,0.0130,0.2484,1.3785,-9.7364,1.7342,7.3060,172.4888,0.0000,0.0000,0.0000,0.0000,0.0000,nothing
449524,-0.1793,0.0810,0.0461,0.2981,1.2289,-9.7442,1.7347,7.2938,172.5006,0.0000,0.0000,0.0000,0.0000,0.0000,nothing
449640,-0.1887,0.0639,0.0143,0.3077,1.2193,-9.7298,1.7409,7.2784,172.5141,0.0000,0.0000,0.0000,0.0000,0.0000,nothing
449756,-0.2222,0.1013,0.0232,0.3238,1.2307,-9.7226,1.7561,7.2715,172.5172,0.0000,0.0000,0.0000,0.0000,0.0000,nothing
449872,-0.2112,0.0667,0.0251,0.2921,1.2714,-9.6843,1.7518,7.2919,172.4984,0.0000,0.0000,0.0000,0.0000,0.0000,nothing
449988,-0.2056,0.0466,-0.0244,0.2712,1.2325,-9.7298,1.7350,7.2843,172.5097,0.0000,0.0000,0.0000,0.0000,0.0000,nothing
450104,-0.2174,0.1197,-0.0191,0.3310,1.2432,-9.7214,1.7549,7.2843,172.5051,0.0000,0.0000,0.0000,0.0000,0.0000,nothing
450220,-0.2090,0.0669,0.0180,0.2867,1.1912,-9.7232,1.7471,7.2540,172.5364,0.0000,0.0000,0.0000,0.0000,0.0000,nothing
450336,-0.1963,0.0815,0.0153,0.2969,1.2331,-9.7178,1.7460,7.2514,172.5392,0.0000,0.0000,0.0000,0.0000,0.0000,nothing
450452,-0.2144,0.0758,-0.0140,0.3113,1.2169,-9.7603,1.7526,7.2365,172.5520,0.0000,0.0000,0.0000,0.0000,0.0000,nothing
450568,-0.1824,0.0800,0.0074,0.3244,1.1971,-9.7202,1.7671,7.2146,172.5699,0.0000,0.0000,0.0000,0.0000,0.0000,nothing
450684,-0.1948,0.0893,0.0071,0.3065,1.2091,-9.7573,1.7689,7.1992,172.5844,0.0000,0.0000,0.0000,0.0000,0.0000,nothing
450800,-0.2131,0.0772,0.0477,0.3053,1.2791,-9.7400,1.7700,7.2271,172.5570,0.0000,0.0000,0.0000,0.0000,0.0000,nothing
450916,-0.2052,0.0620,-0.0525,0.2777,1.2402,-9.7214,1.7554,7.2312,172.5566,0.0000,0.0000,0.0000,0.0000,0.0000,nothing
451032,-0.2453,0.0672,0.0292,0.2777,1.2307,-9.7729,1.7413,7.2255,172.5655,0.0000,0.0000,0.0000,0.0000,0.0000,nothing
451148,-0.2204,0.0781,-0.0245,0.3226,1.2145,-9.7088,1.7560,7.2156,172.5716,0.0000,0.0000,0.0000,0.0000,0.0000,nothing
451264,-0.1693,0.0567,-0.0432,0.3220,1.2151,-9.7364,1.7684,7.2050,172.5789,0.0000,0.0000,0.0000,0.0000,0.0000,nothing
451380,-0.1966,0.0799,-0.0161,0.2909,1.2600,-9.7220,1.7615,7.2226,172.5634,0.0000,0.0000,0.0000,0.0000,0.0000,nothing
451496,-0.1919,0.0818,-0.0320,0.2945,1.2582,-9.7292,1.7573,7.2369,172.5506,0.0000,0.0000,0.0000,0.0000,0.0000,nothing
451612,-0.2454,0.0776,0.0556,0.2753,1.2265,-9.7292,1.7424,7.2314,172.5594,0.0000,0.0000,0.0000,0.0000,0.0000,nothing
