timestamp_ms,ax_slav,ay_slav,az_slav,gx_slav,gy_slav,gz_slav,angle_x_slav,angle_y_slav,angle_z_slav,flex_slav_0,flex_slav_1,flex_slav_2,flex_slav_3,flex_slav_4,ax,ay,az,gx,gy,gz,angle_x,angle_y,angle_z,flex_0,flex_1,flex_2,flex_3,flex_4,Label
493811,-0.2203,-6.9704,-7.0015,0.3044,-0.4342,0.2395,-42.8935,-0.1803,137.1059,0.00,11.75,0.00,0.00,0.00,0.9481,4.6575,-8.6763,-0.2766,-0.0682,0.0050,28.2469,6.0035,151.0078,0.00,7.78,36.10,18.44,34.02,nothing
493877,-0.2915,-6.9560,-6.9686,-0.0320,-0.3835,0.1166,-43.9164,-0.9404,136.0682,0.00,11.75,0.00,0.00,0.00,1.0098,4.7826,-8.6248,-0.2564,-0.0224,0.0339,28.5455,5.9249,150.7331,0.00,7.78,36.10,18.44,34.02,nothing
493943,-0.4585,-6.4831,-7.2080,0.1281,-0.3028,0.1806,-42.9259,-1.8192,137.0163,0.00,11.75,0.00,0.00,0.00,0.8691,4.7155,-8.6835,-0.3326,-0.0108,0.0102,28.4660,5.4756,150.9158,0.00,7.78,36.10,18.44,38.67,nothing
494009,-0.6943,-6.8872,-6.9572,0.2084,-0.2800,0.2011,-43.7606,-2.9415,136.0884,0.00,11.75,0.00,0.00,0.00,0.9499,4.7389,-8.6512,-0.1603,0.0481,0.0104,28.5172,5.4882,150.8625,0.00,7.78,36.10,18.44,34.02,nothing
494075,-0.5429,-7.0913,-6.8542,0.0997,-0.0409,-0.0297,-44.8277,-3.0472,135.0104,0.00,11.75,0.00,0.00,0.00,0.9224,4.9179,-8.5680,-0.2718,0.0468,-0.0026,29.1153,5.4114,150.2891,0.00,7.78,36.10,13.09,34.02,nothing
494141,-0.6405,-6.7160,-6.9853,-0.0758,-0.0693,0.0872,-44.2950,-3.4123,135.5020,0.00,11.75,0.00,0.00,0.00,0.9583,4.8371,-8.6075,-0.2765,0.0605,0.0202,29.1496,5.4776,150.2408,0.00,7.78,36.10,18.44,34.02,nothing
494207,-0.5746,-6.8321,-6.9123,-0.0185,-0.1947,0.1296,-44.4308,-3.3980,135.3679,0.00,11.75,0.00,0.00,0.00,0.9188,4.7574,-8.6464,-0.2244,0.0851,0.0170,28.9174,5.3984,150.4874,0.00,7.78,36.10,13.09,34.02,nothing
494273,-0.6471,-7.0476,-6.8303,-0.2432,0.0691,-0.0293,-45.1032,-3.5861,134.6726,0.00,11.75,0.00,0.00,0.00,0.9404,4.7497,-8.6266,-0.1801,0.0964,-0.0029,28.8057,5.4265,150.5915,0.00,7.78,36.10,13.09,34.02,nothing
494339,-0.7692,-6.7555,-7.0260,0.0751,0.1317,-0.1748,-44.4061,-4.0490,135.3082,0.00,11.75,0.00,0.00,0.00,0.9715,4.8436,-8.6200,-0.1775,0.1058,0.0116,28.9920,5.5191,150.3871,0.00,7.78,36.10,18.44,34.02,nothing
494405,-0.5543,-6.5406,-7.0853,-0.0297,0.1501,-0.0434,-43.5222,-3.6723,136.2425,0.00,11.75,0.00,0.00,0.00,0.9661,4.7856,-8.6087,-0.1106,0.1017,-0.0237,28.9550,5.5605,150.4144,0.00,7.78,36.10,18.44,34.02,nothing
494471,-0.5680,-6.9758,-6.8926,-0.0538,0.0712,-0.0432,-44.3892,-3.4932,135.3981,0.00,11.75,0.00,0.00,0.00,1.0038,4.8682,-8.5674,-0.0813,0.0956,-0.0304,29.1970,5.6886,150.1466,0.00,7.78,36.10,18.44,38.67,nothing
494537,-0.4723,-6.6866,-7.0314,-0.2836,0.0547,0.0314,-43.9450,-3.1410,135.8829,0.00,11.75,0.00,0.00,0.00,0.9003,4.8718,-8.6332,-0.2346,0.0878,-0.0100,29.2509,5.4383,150.1494,0.00,7.78,36.10,18.44,34.02,nothing
494603,-0.5327,-6.8141,-6.9919,-0.1481,0.0132,0.0109,-44.0624,-3.1321,135.7665,0.00,11.75,0.00,0.00,0.00,0.9625,4.5719,-8.7266,-0.3166,0.0500,-0.0059,28.3809,5.5097,150.9921,0.00,7.78,36.10,18.44,34.02,nothing
494669,-0.5680,-6.5394,-7.1015,-0.1738,-0.0902,0.0851,-43.3095,-3.2495,136.5061,0.00,11.75,0.00,0.00,0.00,0.9038,4.5240,-8.7763,-0.1489,0.0676,-0.0131,27.7642,5.3703,151.6313,0.00,7.78,36.10,13.09,34.02,nothing
494735,-0.5495,-6.6513,-7.0907,0.1213,-0.3185,0.2128,-43.1962,-3.2422,136.6202,0.00,11.75,0.00,0.00,0.00,0.9368,4.7586,-8.6039,-0.1446,0.0909,-0.0202,28.2829,5.4065,151.1118,0.00,7.78,36.10,18.44,34.02,nothing
494801,-0.6058,-7.1027,-6.7621,-0.0211,-0.7414,0.4861,-44.7529,-3.3904,135.0467,0.00,11.75,0.00,0.00,0.00,0.8997,4.6736,-8.7044,-0.2608,0.0536,-0.0019,28.1943,5.3047,151.2216,0.00,7.78,36.10,18.44,43.32,nothing
494867,-1.5264,-6.5238,-7.1122,0.2087,-0.3156,0.2048,-43.3788,-6.1899,135.9544,0.00,11.75,0.00,0.00,0.00,0.9469,4.7293,-8.6242,-0.2170,0.0262,-0.0091,28.3943,5.4018,151.0029,0.00,7.78,36.10,13.09,34.02,nothing
494933,-1.1493,-6.6932,-6.9464,-0.1823,0.0826,0.0048,-43.4651,-6.4914,135.8020,4.02,11.75,0.00,0.00,0.00,0.9607,4.7287,-8.6380,-0.2275,0.0893,0.0174,28.4720,5.4869,150.9073,0.00,7.78,36.10,13.09,34.02,nothing
494999,-1.2881,-6.6573,-6.9973,0.3434,0.3302,-0.2433,-43.2834,-7.0443,135.8540,4.02,11.75,0.00,0.00,0.00,0.9140,4.7610,-8.6194,-0.1940,0.0887,0.0142,28.6256,5.3951,150.7762,0.00,7.78,36.10,13.09,34.02,nothing
495066,-1.2325,-7.0278,-6.7483,0.1037,0.6101,-0.3754,-44.4935,-7.1288,134.6241,4.02,11.75,0.00,0.00,0.00,0.9505,4.7329,-8.6170,-0.1445,0.0912,0.0050,28.6287,5.4587,150.7590,0.00,7.78,36.10,18.44,34.02,nothing
495132,-0.7374,-6.5897,-7.0590,-0.1775,0.6688,-0.3767,-43.7064,-5.7552,135.7171,0.00,11.75,0.00,0.00,0.00,0.8667,4.8796,-8.6069,-0.2104,0.0769,0.0207,29.0289,5.2322,150.4130,0.00,7.78,36.10,13.09,34.02,nothing
495198,-0.0952,-7.0997,-6.8477,-0.3239,1.1295,-0.5026,-44.9337,-3.1363,134.8948,0.00,11.75,0.00,0.00,0.00,0.8985,4.5893,-8.7697,-0.2500,0.0699,0.0112,28.2636,5.2099,151.1736,0.00,7.78,48.48,13.09,34.02,nothing
495264,-0.1437,-6.6166,-7.1559,-0.1272,0.7115,-0.3482,-43.8566,-1.9929,136.0741,0.00,11.75,0.00,0.00,0.00,0.9906,4.6593,-8.7200,-0.2221,0.0902,0.0252,28.1141,5.4661,151.2650,0.00,7.78,36.10,18.44,34.02,nothing
495330,0.1640,-6.6597,-7.1009,-0.0802,0.3131,-0.1189,-43.5250,-0.5158,136.4703,0.00,11.75,0.00,0.00,0.00,0.9631,4.8987,-8.6236,-0.1408,0.1102,0.0405,28.7816,5.5067,150.5974,0.00,7.78,36.10,18.44,34.02,nothing
495396,-0.0132,-6.6489,-7.1649,-0.0931,0.1513,0.0326,-43.1928,-0.2962,136.8056,0.00,7.32,0.00,0.00,0.00,0.9302,4.7341,-8.6518,-0.2301,0.0769,0.0202,28.6653,5.4475,150.7254,0.00,7.78,36.10,18.44,38.67,nothing
495463,0.1161,-6.9560,-6.9578,0.3209,0.0016,-0.0218,-44.0964,0.1920,135.9030,0.00,11.75,0.00,0.00,0.00,0.9308,4.6252,-8.6673,-0.2683,0.0515,0.0115,28.3085,5.4300,151.0813,0.00,7.78,36.10,18.44,34.02,nothing
495529,0.1395,-6.6789,-7.1236,-0.1239,0.0120,-0.0639,-43.6243,0.5046,136.3713,0.00,16.17,0.00,0.00,0.00,0.9655,4.7012,-8.6284,-0.5159,0.0383,0.0101,28.3713,5.5208,150.9990,8.13,7.78,36.10,13.09,38.67,nothing
495595,0.2370,-6.8608,-6.9985,-0.3831,0.0578,-0.0575,-44.0215,0.9456,135.9629,0.00,11.75,0.00,0.00,0.00,0.9254,4.7341,-8.6877,-0.2545,0.0965,0.0018,28.4115,5.4319,150.9793,0.00,7.78,48.48,18.44,34.02,nothing
495661,0.0527,-6.7010,-7.1667,-0.1333,0.0232,-0.0534,-43.5491,0.6263,136.4440,0.00,11.75,0.00,0.00,0.00,0.9236,4.7179,-8.6428,-0.2104,0.0694,-0.0100,28.4521,5.3953,150.9473,0.00,7.78,36.10,18.44,34.02,nothing
495727,0.0395,-6.5220,-7.2295,-0.0034,-0.1386,0.0153,-42.8045,0.4301,137.1923,0.00,11.75,0.00,0.00,0.00,0.9936,4.8580,-8.5901,-0.2022,0.0738,-0.0179,28.8900,5.5727,150.4757,0.00,7.78,36.10,18.44,34.02,nothing
495793,0.0850,-6.6579,-7.0979,-0.0116,0.0087,-0.0222,-42.9850,0.4652,137.0112,0.00,11.75,0.00,0.00,0.00,0.9308,4.9149,-8.5817,-0.2555,0.0650,-0.0097,29.2736,5.4747,150.1190,0.00,7.78,36.10,18.44,34.02,nothing
495859,0.1071,-6.6352,-7.1847,0.1669,-0.0082,0.0260,-42.8523,0.5466,137.1425,0.00,7.32,0.00,0.00,0.00,0.8673,4.7574,-8.6099,-0.1984,0.0693,0.0072,29.0381,5.2573,150.3986,0.00,7.78,36.10,18.44,38.67,nothing
495925,-0.1514,-6.9524,-7.0057,-0.0248,0.0046,0.0076,-43.8229,-0.1701,136.1766,0.00,7.32,0.00,0.00,0.00,0.9362,4.8041,-8.6476,-0.0942,0.0976,0.0110,28.9753,5.3318,150.4446,0.00,7.78,36.10,18.44,34.02,nothing
495991,0.1634,-6.8878,-7.0033,-0.2975,0.0732,-0.0532,-44.1722,0.3917,135.8251,0.00,11.75,0.00,0.00,0.00,0.9080,4.7060,-8.6404,-0.1027,0.1129,0.0215,28.7096,5.3025,150.7134,0.00,0.00,36.10,18.44,34.02,nothing
496057,-0.1275,-6.9877,-7.1871,-0.7932,0.5609,-0.1693,-44.1838,-0.1743,135.8157,0.00,7.32,0.00,0.00,0.00,1.0104,4.8041,-8.6009,-0.1521,0.1046,0.0065,28.8649,5.5792,150.4990,0.00,7.78,36.10,13.09,34.02,nothing
496123,0.7566,-6.1856,-7.3463,0.2361,0.5058,-0.2155,-42.1383,2.1320,137.7821,0.00,7.32,0.00,0.00,0.00,0.9128,4.6341,-8.6919,-0.2233,0.0750,-0.0255,28.4000,5.4372,150.9894,0.00,7.78,36.10,18.44,34.02,nothing
496189,0.3346,-7.0314,-6.8908,-0.5180,0.3486,-0.2892,-43.8493,2.0398,136.0780,0.00,11.75,0.00,0.00,0.00,0.9475,4.6725,-8.5859,-0.1561,0.0908,-0.0551,28.4048,5.4867,150.9736,0.00,7.78,36.10,18.44,34.02,nothing
496255,0.7763,-6.4927,-7.2349,-1.0020,0.5251,-0.2770,-42.8103,3.3001,136.9994,0.00,7.32,0.00,0.00,0.00,0.9769,4.8628,-8.5674,-0.3281,0.0833,-0.0784,28.9138,5.5753,150.4517,0.00,7.78,36.10,18.44,38.67,nothing
496321,0.9457,-5.3458,-8.0699,-0.3209,0.2709,-0.1785,-38.0929,4.4522,141.5521,0.00,7.32,0.00,0.00,0.00,0.9829,4.6701,-8.6901,-0.1994,0.0973,-0.1922,28.5072,5.6326,150.8396,0.00,7.78,36.10,18.44,34.02,nothing
496387,0.9972,-6.3024,-7.4642,-0.0124,0.3112,-0.1421,-39.0185,5.1448,140.5113,0.00,7.32,0.00,0.00,0.00,0.8434,5.1004,-8.4345,-0.4523,0.0893,-0.0967,29.7717,5.2629,149.6722,0.00,7.78,23.72,13.09,34.02,nothing
496453,1.1044,-6.2072,-7.5324,-0.1391,0.1123,-0.0391,-39.1086,5.8020,140.2945,0.00,7.32,0.00,0.00,0.00,0.9254,4.7120,-8.6889,-0.4780,0.0484,-0.1099,29.0524,5.3062,150.3739,0.00,7.78,36.10,18.44,34.02,nothing
496519,1.3330,-5.5901,-7.5091,0.3151,-0.5494,0.2367,-37.7068,6.9348,141.4333,0.00,2.90,0.00,0.00,0.00,0.8829,4.7347,-8.6691,-0.2968,0.0716,-0.1193,28.7848,5.2069,150.6595,0.00,0.00,36.10,18.44,38.67,nothing
496585,0.9439,-6.4095,-7.1936,0.6741,-0.9090,0.4811,-39.5902,6.2662,139.7164,0.00,2.90,0.00,0.00,0.00,0.7644,4.9514,-8.5075,-0.2774,0.0998,-0.0678,29.4414,4.8247,150.0874,0.00,7.78,36.10,18.44,34.02,nothing
496651,0.0844,-6.7746,-7.4289,0.3776,-0.4905,0.3170,-41.0650,3.3142,138.7417,0.00,7.32,0.00,4.11,0.00,0.8003,5.0011,-8.4871,-0.2082,0.0761,0.0521,29.9195,4.7348,149.6310,0.00,7.78,60.86,18.44,34.02,nothing
496717,0.5896,-6.2946,-7.3122,-0.2228,-0.4586,0.4166,-40.8501,3.4048,138.9458,0.00,7.32,0.00,0.00,0.00,0.8494,4.8556,-8.5668,-0.2423,0.0267,0.0852,29.6720,4.8324,149.8576,0.00,7.78,36.10,13.09,34.02,nothing
496783,0.1921,-7.0751,-6.9530,0.2777,0.1879,0.0161,-43.1984,2.2490,136.7132,0.00,7.32,0.00,0.00,0.00,0.8643,4.8023,-8.6278,-0.1929,-0.0065,0.0758,29.3253,4.9177,150.1842,0.00,7.78,36.10,18.44,34.02,nothing
496849,0.4848,-6.3335,-7.2541,0.1074,-0.3587,0.2638,-42.1403,2.5631,137.7446,0.00,7.32,0.00,0.00,0.00,0.8925,4.8353,-8.5494,-0.1865,-0.0311,0.0491,29.3418,5.0545,150.1404,0.00,7.78,36.10,18.44,38.67,nothing
496915,0.0395,-6.9859,-7.0063,0.4163,-0.3919,0.2075,-43.5504,1.3867,136.4160,0.00,7.32,0.00,0.00,0.00,0.7835,4.9179,-8.5416,-0.2024,0.0545,0.0579,29.5851,4.7998,149.9500,0.00,7.78,36.10,18.44,34.02,nothing
496981,-0.2622,-6.6459,-7.1410,0.0187,-0.0995,0.0196,-43.2558,-0.0727,136.7441,0.00,7.32,0.00,0.00,0.00,0.8769,4.8389,-8.5961,-0.1910,0.0938,0.0296,29.4170,4.9401,150.0890,0.00,7.78,36.10,13.09,34.02,nothing
497047,-0.0634,-6.6591,-7.1805,0.0072,0.0758,-0.0285,-43.0487,-0.2220,136.9505,0.00,7.32,0.00,0.00,0.00,0.8033,4.7341,-8.6542,-0.2335,0.0590,-0.0203,28.9969,4.7979,150.5328,0.00,7.78,36.10,18.44,34.02,nothing
497113,-0.0922,-6.9237,-6.9722,0.0200,0.0206,0.0056,-43.9251,-0.3801,136.0724,0.00,7.32,0.00,0.00,0.00,0.8835,4.9376,-8.5326,-0.1576,0.0791,-0.0059,29.4610,4.9597,150.0415,0.00,7.78,36.10,18.44,34.02,nothing
497179,-0.0389,-6.5909,-7.1224,0.0487,-0.0196,0.0180,-43.3555,-0.3053,136.6429,0.00,7.32,0.00,0.00,0.00,0.7835,4.8700,-8.5285,-0.2495,0.0702,0.0168,29.5425,4.7610,149.9996,0.00,7.78,36.10,18.44,34.02,nothing
497245,-0.1694,-6.7501,-7.0967,0.0034,0.0168,-0.0185,-43.4580,-0.6488,136.5347,0.00,7.32,0.00,0.00,0.00,0.8003,4.8407,-8.5841,-0.2461,0.0439,-0.0008,29.4277,4.7018,150.1246,0.00,7.78,36.10,18.44,34.02,nothing
497311,-0.0754,-6.7100,-7.0877,0.1500,-0.0352,0.0451,-43.4443,-0.5459,136.5505,0.00,7.32,0.00,0.00,0.00,0.7452,4.8472,-8.6003,-0.2525,0.0468,-0.0095,29.3713,4.5092,150.2162,0.00,7.78,36.10,13.09,34.02,nothing
497377,-0.1299,-6.9201,-6.9147,0.3200,0.0052,0.0046,-44.2315,-0.6534,135.7610,0.00,7.32,0.00,0.00,0.00,0.8039,4.9909,-8.5123,-0.2514,0.0740,-0.0151,29.8224,4.5835,149.7554,0.00,7.78,36.10,18.44,34.02,nothing
497444,-0.1006,-6.9416,-6.8363,0.1012,0.0626,-0.0080,-44.8323,-0.6225,135.1609,0.00,7.32,0.00,0.00,0.00,0.7662,4.9729,-8.5332,-0.2759,0.0349,0.0065,29.9775,4.5096,149.6149,0.00,7.78,36.10,18.44,34.02,nothing
497510,-0.0287,-6.9398,-6.8662,-0.0158,0.0016,-0.0060,-45.0693,-0.3955,134.9280,0.00,7.32,0.00,0.00,0.00,0.7015,4.8077,-8.6128,-0.2004,0.0915,-0.0161,29.5343,4.2891,150.0936,0.00,7.78,36.10,18.44,34.02,nothing
497576,-0.0838,-6.8249,-6.9321,0.0579,0.0611,-0.0338,-44.8109,-0.4445,135.1856,0.00,7.32,0.00,0.00,0.00,0.7817,4.9125,-8.5572,-0.2581,0.0932,0.0019,29.6454,4.4096,149.9622,0.00,16.13,36.10,18.44,34.02,nothing
497642,-0.0359,-7.0117,-6.7926,0.0108,0.0256,0.0082,-45.3605,-0.3275,134.6376,0.00,7.32,0.00,0.00,0.00,0.7596,4.8867,-8.5781,-0.2754,0.0823,0.0101,29.6092,4.4046,149.9991,0.00,7.78,36.10,18.44,34.02,nothing
497708,-0.0341,-6.9853,-6.7842,0.0318,0.0454,-0.0301,-45.5983,-0.2642,134.4005,0.00,7.32,0.00,0.00,0.00,0.9056,4.9011,-8.6063,-0.2198,0.0897,0.0149,29.5679,4.8156,149.9639,0.00,7.78,36.10,13.09,38.67,nothing
497774,-0.0778,-6.9638,-6.8566,-0.0459,0.0188,-0.0134,-45.5203,-0.3603,134.4774,0.00,7.32,0.00,0.00,0.00,0.7297,4.8867,-8.5380,-0.2252,0.0803,0.0318,29.6316,4.5296,149.9544,0.00,7.78,36.10,23.79,34.02,nothing
497840,-0.0209,-7.0069,-6.8261,-0.0544,0.0025,0.0034,-45.6347,-0.2414,134.3643,0.00,7.32,0.00,0.00,0.00,0.6985,4.7850,-8.6344,-0.1877,0.0971,0.0147,29.2736,4.2886,150.3523,0.00,7.78,36.10,13.09,38.67,nothing
497906,-0.0048,-6.9805,-6.8207,-0.0353,0.0119,-0.0194,-45.6492,-0.1348,134.3505,0.00,7.32,0.00,0.00,0.00,0.7746,4.8239,-8.6140,-0.1502,0.1358,0.0018,29.2122,4.3873,150.3959,0.00,7.78,36.10,18.44,34.02,nothing
497972,-0.0503,-6.8267,-6.9614,-0.1509,-0.0053,-0.0031,-45.0449,-0.2151,134.9543,0.00,7.32,0.00,0.00,0.00,0.7542,4.8963,-8.5578,-0.1678,0.0823,0.0320,29.4462,4.3808,150.1649,0.00,7.78,36.10,13.09,34.02,nothing
498038,-0.0844,-7.0021,-6.8501,-0.1189,-0.0106,0.0229,-45.3365,-0.3546,134.6613,0.00,7.32,0.00,0.00,0.00,0.7171,4.8957,-8.5698,-0.1823,0.0648,-0.0127,29.5494,4.2682,150.0822,0.00,7.78,36.10,18.44,34.02,nothing
498104,-0.0449,-6.9345,-6.8914,-0.0119,-0.0293,-0.0300,-45.2573,-0.3089,134.7411,0.00,7.32,0.00,0.00,0.00,0.7530,4.9448,-8.5763,-0.2176,0.0977,0.0140,29.7105,4.3091,149.9152,0.00,7.78,36.10,18.44,38.67,nothing
498170,-0.0515,-6.9129,-6.9033,-0.1325,0.0303,-0.0256,-45.1481,-0.3054,134.8502,0.00,7.32,0.00,0.00,0.00,0.8093,4.9412,-8.5273,-0.2511,0.0776,0.0075,29.8449,4.5014,149.7479,0.00,7.78,36.10,18.44,34.02,nothing
498236,-0.0611,-6.8806,-6.9351,0.0262,-0.0248,-0.0155,-44.9606,-0.3317,135.0375,0.00,7.32,0.00,0.00,0.00,0.7315,4.8418,-8.6123,-0.2506,0.0871,0.0080,29.5510,4.3678,150.0633,0.00,7.78,36.10,18.44,38.67,nothing
498302,-0.0551,-6.8207,-6.9835,-0.0762,0.0104,0.0065,-44.6421,-0.3275,135.3560,0.00,7.32,0.00,0.00,0.00,0.7769,4.8640,-8.6158,-0.1828,0.0926,-0.0132,29.4490,4.4290,150.1536,0.00,7.78,36.10,13.09,38.67,nothing
498368,-0.0281,-6.8429,-6.9584,-0.1242,0.0008,0.0101,-44.5812,-0.2464,135.4177,0.00,11.75,0.00,0.00,0.00,0.7039,4.9268,-8.6117,-0.1804,0.0968,-0.0045,29.5710,4.2434,150.0649,0.00,7.78,36.10,18.44,34.02,nothing
498434,-0.0575,-6.9668,-6.8758,-0.0292,0.0070,-0.0119,-44.9790,-0.2914,135.0196,0.00,11.75,0.00,0.00,0.00,0.7614,4.9502,-8.5823,-0.1362,0.1073,-0.0027,29.7250,4.3189,149.8991,0.00,7.78,36.10,13.09,34.02,nothing
498500,-0.0838,-6.9512,-6.8902,-0.0288,0.0004,-0.0053,-45.1150,-0.3911,134.8824,0.00,16.17,0.00,0.00,0.00,0.7440,4.8909,-8.5578,-0.1949,0.0897,-0.0157,29.6905,4.3178,149.9335,0.00,7.78,36.10,18.44,34.02,nothing
498566,-0.0760,-6.8722,-6.9608,0.0093,-0.0165,0.0052,-44.8732,-0.4182,135.1238,0.00,11.75,0.00,0.00,0.00,0.7692,4.9035,-8.5662,-0.1635,0.0822,-0.0044,29.6897,4.3868,149.9223,0.00,7.78,36.10,18.44,38.67,nothing
498632,-0.0467,-6.8519,-6.9225,-0.1371,0.0154,0.0040,-44.7896,-0.3466,135.2083,0.00,11.75,0.00,0.00,0.00,0.7889,4.9484,-8.5069,-0.2752,0.0622,-0.0138,29.8845,4.4849,149.7117,0.00,7.78,48.48,18.44,34.02,nothing
498698,-0.1329,-6.9003,-6.9416,-0.0185,0.0121,-0.0219,-44.8071,-0.5625,135.1874,0.00,11.75,0.00,0.00,0.00,0.7207,4.8275,-8.5907,-0.2397,0.0919,0.0132,29.5664,4.3340,150.0539,0.00,0.00,48.48,13.09,34.02,nothing
498764,-0.0808,-6.8225,-6.9871,0.0045,0.0269,-0.0093,-44.5613,-0.5183,135.4341,0.00,11.75,0.00,0.00,0.00,0.7195,4.7473,-8.6476,-0.2215,0.0851,0.0011,29.1242,4.2528,150.5067,0.00,7.78,36.10,18.44,34.02,nothing
498830,-0.0808,-6.9213,-6.9440,-0.1234,0.0517,-0.0292,-44.7330,-0.4952,135.2627,0.00,11.75,0.00,0.00,0.00,0.7668,4.8766,-8.5985,-0.1279,0.0961,-0.0014,29.2935,4.3443,150.3229,0.00,16.13,36.10,18.44,34.02,nothing
498896,-0.0413,-6.9057,-6.8746,0.0102,0.0394,-0.0461,-44.9306,-0.3693,135.0670,0.00,7.32,0.00,0.00,0.00,0.7207,4.9101,-8.7230,-0.2166,0.0845,0.0052,29.2925,4.2304,150.3435,0.00,7.78,36.10,13.09,34.02,nothing
498962,-0.0180,-6.8728,-6.9339,-0.0578,0.0296,-0.0270,-44.8388,-0.2374,135.1603,0.00,11.75,0.00,0.00,0.00,0.7494,4.8125,-8.6236,-0.2868,0.0973,-0.0030,29.1829,4.2848,150.4429,0.00,7.78,36.10,13.09,34.02,nothing
499028,-0.0413,-6.9339,-6.9225,0.0215,0.0345,-0.0474,-44.9428,-0.2394,135.0562,0.00,11.75,0.00,0.00,0.00,0.7686,4.7299,-8.6380,-0.2262,0.0844,0.0110,28.8967,4.3734,150.7112,0.00,0.00,36.10,18.44,34.02,nothing
499094,-0.1119,-6.9069,-6.9758,0.0260,0.0100,-0.0391,-44.8277,-0.4467,135.1688,0.00,11.75,0.00,0.00,0.00,0.8117,4.7976,-8.5428,-0.1913,0.0828,-0.0249,29.0521,4.5539,150.5244,0.00,0.00,36.10,13.09,34.02,nothing
499160,0.0599,-6.9500,-6.8405,-0.0973,0.0285,-0.0020,-45.1415,-0.0485,134.8585,0.00,11.75,0.00,0.00,0.00,0.7536,4.8257,-8.5596,-0.1611,0.0939,0.0124,29.1853,4.4698,150.4077,0.00,7.78,36.10,18.44,34.02,nothing
499226,-0.0024,-6.9434,-6.9201,0.0083,0.0308,-0.0078,-45.1189,-0.0312,134.8810,0.00,7.32,0.00,0.00,0.00,0.7488,4.8897,-8.6075,-0.2597,0.0911,-0.0027,29.3469,4.3976,150.2604,0.00,7.78,23.72,18.44,34.02,nothing
499292,-0.0186,-6.8507,-6.9692,-0.0751,-0.0004,0.0038,-44.8140,-0.0700,135.1859,0.00,11.75,0.00,0.00,0.00,0.7734,4.7826,-8.6242,-0.2472,0.0896,-0.0139,29.1302,4.4408,150.4676,0.00,7.78,36.10,18.44,34.02,nothing
499358,-0.0718,-6.8967,-6.9231,-0.0191,-0.0064,-0.0387,-44.8519,-0.2455,135.1470,0.00,7.32,0.00,0.00,0.00,0.7931,4.8203,-8.5470,-0.2117,0.0943,0.0044,29.2234,4.5307,150.3589,0.00,7.78,36.10,18.44,34.02,nothing
499424,0.0311,-6.6962,-7.0224,-0.1546,0.0544,0.0151,-44.2474,-0.0317,135.7526,0.00,7.32,0.00,0.00,0.00,0.7716,4.9418,-8.5368,-0.2181,0.0832,0.0140,29.5946,4.5017,149.9962,0.00,7.78,36.10,13.09,34.02,nothing
499490,-0.0090,-6.9740,-6.8848,0.0184,0.0224,-0.0130,-44.8098,-0.0421,135.1902,0.00,11.75,0.00,0.00,0.00,0.7506,4.8909,-8.5931,-0.2558,0.0793,0.0048,29.5741,4.4213,150.0309,0.00,7.78,36.10,18.44,34.02,nothing
499556,0.0221,-6.8351,-6.9518,-0.0513,-0.0060,-0.0131,-44.6625,0.0439,135.3375,0.00,11.75,0.00,0.00,0.00,0.7428,4.8017,-8.5518,-0.2259,0.0796,0.0215,29.3986,4.3765,150.2129,0.00,7.78,36.10,18.44,34.02,nothing
499622,0.0144,-6.9081,-6.9315,-0.0354,0.0034,-0.0434,-44.7831,0.0641,135.2169,0.00,11.75,0.00,0.00,0.00,0.7985,4.7730,-8.6081,-0.2016,0.1032,0.0008,29.1511,4.5073,150.4349,0.00,7.78,36.10,18.44,34.02,nothing
499688,-0.0287,-6.8842,-6.9422,-0.0266,0.0100,-0.0241,-44.7712,-0.0522,135.2287,0.00,16.17,0.00,0.00,0.00,0.7967,4.8466,-8.5458,-0.2067,0.1050,0.0157,29.3019,4.5717,150.2736,0.00,24.49,36.10,18.44,38.67,nothing
499754,0.0138,-6.8824,-6.9512,0.0245,-0.0075,0.0018,-44.7431,0.0142,135.2569,0.00,11.75,0.00,0.00,0.00,0.7913,4.9017,-8.6081,-0.2189,0.0675,0.0068,29.4289,4.5695,150.1481,0.00,7.78,36.10,18.44,34.02,nothing
499820,0.0120,-6.9500,-6.9135,0.0232,0.0288,-0.0649,-44.9472,0.0421,135.0527,0.00,11.75,0.00,0.00,0.00,0.7476,4.7341,-8.6338,-0.2099,0.0902,0.0132,29.0385,4.4560,150.5558,0.00,7.78,36.10,13.09,38.67,nothing
499886,-0.0138,-6.8692,-6.9692,-0.0188,-0.0023,-0.0213,-44.7667,-0.0192,135.2333,0.00,11.75,0.00,0.00,0.00,0.7919,4.8538,-8.5374,-0.2108,0.0872,-0.0157,29.2760,4.5330,150.3063,0.00,7.78,36.10,13.09,34.02,nothing
499952,0.0054,-6.9458,-6.9123,0.0278,-0.0064,-0.0342,-44.9528,0.0062,135.0472,0.00,7.32,0.00,0.00,0.00,0.7781,4.7766,-8.5781,-0.2283,0.0676,-0.0134,29.1436,4.5322,150.4377,0.00,7.78,36.10,18.44,38.67,nothing
500018,-0.0018,-6.8309,-6.9829,-0.0503,0.0094,-0.0110,-44.6615,-0.0022,135.3385,0.00,7.32,0.00,0.00,0.00,0.7913,4.9807,-8.5392,-0.2184,0.0772,0.0033,29.6470,4.5546,149.9346,0.00,7.78,36.10,13.09,34.02,nothing
500084,-0.0186,-6.9051,-6.8991,0.0420,-0.0174,-0.0211,-44.8429,-0.0555,135.1570,0.00,11.75,0.00,0.00,0.00,0.8051,4.8317,-8.6051,-0.2553,0.0669,-0.0052,29.4270,4.6093,150.1426,0.00,7.78,23.72,18.44,34.02,nothing
500150,0.0479,-6.9279,-6.8902,-0.0642,0.0005,-0.0023,-44.9996,0.1127,135.0002,0.00,7.32,0.00,0.00,0.00,0.7548,4.8053,-8.5733,-0.1925,0.0811,-0.0125,29.3020,4.5007,150.2865,0.00,7.78,36.10,18.44,34.02,nothing
500216,0.0174,-7.0236,-6.8728,-0.0263,0.0008,-0.0195,-45.3116,0.1069,134.6882,0.00,7.32,0.00,0.00,0.00,0.7644,4.8574,-8.6057,-0.1825,0.0977,0.0027,29.3240,4.4618,150.2717,0.00,7.78,36.10,18.44,38.67,nothing
500282,0.0275,-6.9219,-6.8872,0.0281,0.0083,-0.0094,-45.2278,0.1342,134.7719,0.00,7.32,0.00,0.00,0.00,0.7572,4.8999,-8.7302,-0.2373,0.0650,0.0061,29.2678,4.3931,150.3398,0.00,7.78,36.10,13.09,34.02,nothing
500348,0.0281,-6.9075,-6.9273,-0.0361,0.0324,-0.0119,-45.0729,0.1495,134.9267,0.00,7.32,0.00,0.00,0.00,0.7686,4.7209,-8.6571,-0.2966,0.0702,-0.0065,28.8904,4.4249,150.7082,0.00,7.78,36.10,13.09,34.02,nothing
500414,0.0395,-6.8722,-6.8967,-0.0634,0.0342,-0.0095,-44.9854,0.1909,135.0140,0.00,7.32,0.00,0.00,0.00,0.9188,4.7802,-8.6272,-0.1585,0.0872,-0.0176,28.8729,4.8730,150.6408,0.00,7.78,36.10,18.44,34.02,nothing
500480,0.0162,-6.9027,-6.8842,-0.0292,0.0181,-0.0252,-45.0312,0.1430,134.9684,0.00,7.32,0.00,0.00,0.00,0.8057,4.8269,-8.5979,-0.1846,0.1025,0.0105,29.0379,4.7723,150.4972,0.00,7.78,36.10,18.44,38.67,nothing
500546,-0.0563,-7.0859,-6.8435,0.0369,0.1115,-0.1359,-45.5165,-0.0933,134.4833,0.00,7.32,0.71,0.00,0.00,0.5878,5.1615,-8.4901,-0.1137,0.1102,0.0290,30.1419,4.0780,149.5256,0.00,7.78,36.10,18.44,34.02,nothing
500612,0.2963,-6.7471,-6.9692,0.0672,0.0818,-0.0489,-44.7924,0.8236,135.1957,0.00,7.32,0.00,0.00,0.00,0.9691,4.4145,-8.7661,0.1658,0.2095,0.1475,28.3738,4.8582,151.1375,0.00,7.78,36.10,18.44,34.02,ฉัน
500678,0.0395,-6.9285,-6.9770,-0.0011,-0.0611,0.0269,-44.7969,0.5257,135.1983,0.00,7.32,0.71,0.00,0.00,0.7943,4.7036,-8.6607,-0.1404,0.0578,-0.0499,28.3897,4.7330,151.1464,0.00,7.78,36.10,18.44,34.02,ฉัน
500744,0.0120,-7.1452,-6.8560,0.0804,-0.0406,-0.0194,-45.4942,0.2962,134.5043,0.00,7.32,0.71,0.00,0.00,0.8643,4.7970,-8.5554,-0.3892,0.0984,-0.0894,28.7718,4.8843,150.7386,0.00,7.78,36.10,23.79,34.02,ฉัน
500810,-0.0497,-7.0206,-6.8548,0.0065,0.0543,-0.0372,-45.5896,0.0036,134.4104,0.00,7.32,0.00,0.00,0.00,1.1624,4.0086,-9.0522,-0.3059,0.2431,-0.2845,26.2319,5.8006,153.0372,0.00,7.78,36.10,13.09,38.67,ฉัน
500876,0.0545,-6.9805,-6.8243,0.0872,-0.0067,-0.0139,-45.6187,0.1611,134.3809,0.00,7.32,0.00,0.00,0.00,1.4545,4.5797,-9.7699,-3.4475,-1.8726,-1.6841,25.5246,6.7837,153.4618,0.00,7.78,36.10,18.44,38.67,ฉัน
500942,0.1640,-6.9500,-6.8183,0.0530,0.0444,-0.0172,-45.5807,0.5619,134.4138,0.00,7.32,0.00,0.00,0.00,0.6453,6.6567,-7.5127,-4.4672,-3.2841,-1.1848,33.3563,5.3067,146.1122,34.38,7.78,36.10,23.79,38.67,ฉัน
501008,0.1556,-7.0039,-6.7507,0.0894,-0.0507,0.0346,-45.8137,0.7389,134.1768,0.00,7.32,0.00,0.00,0.00,-1.2642,9.1318,-6.1785,-4.4672,-2.9728,-1.6445,45.2178,-0.9064,134.7678,43.13,24.49,48.48,34.50,38.67,ฉัน
501074,0.0724,-7.1266,-6.6639,-0.0121,-0.0680,0.0035,-46.3673,0.5821,133.6268,0.00,7.32,0.00,0.00,0.00,-2.5320,8.4746,-4.6383,-4.4672,-1.6749,-1.5356,52.2979,-7.7461,126.6210,34.38,41.19,60.86,45.20,38.67,ฉัน
501140,0.1221,-6.9560,-6.7513,0.1013,-0.0500,0.0135,-46.1099,0.6517,133.8826,0.00,7.32,0.00,0.00,0.00,-4.2199,9.3257,-2.3051,-4.4672,-1.3213,-1.6441,59.9560,-16.2363,114.5394,0.00,57.89,85.62,77.32,43.32,ฉัน
501206,0.0724,-7.0045,-6.7423,0.0159,-0.0176,-0.0406,-46.1005,0.5393,133.8944,0.00,7.32,0.00,0.00,0.00,-3.4663,9.1288,-0.2855,-4.4672,0.1280,-1.9447,66.6668,-18.8667,103.2215,0.00,91.30,110.38,146.90,43.32,ฉัน
501272,0.0299,-7.2601,-6.5687,0.1012,-0.0320,-0.0130,-46.9845,0.3566,133.0133,0.00,7.32,0.00,0.00,0.00,-4.6587,8.0394,0.1568,-2.0915,0.9820,-1.6328,64.5472,-24.5539,96.2941,0.00,149.75,209.42,248.60,43.32,ฉัน
501338,0.1706,-6.9512,-6.8513,-0.2080,0.0353,-0.0566,-46.1959,0.6791,133.7960,0.00,7.32,0.00,0.00,0.00,-4.9023,7.9341,0.2436,-1.4745,1.1141,-1.3295,61.6905,-28.1879,92.4109,0.00,191.51,296.09,355.65,43.32,ฉัน
501404,0.0000,-7.2020,-6.6723,0.3520,-0.1896,0.0472,-46.6938,0.3385,133.3042,0.00,7.32,0.00,0.00,0.00,-4.7054,7.7174,0.2077,-0.7287,1.8283,-1.0703,60.2244,-29.7689,90.5747,0.00,208.21,370.37,451.99,38.67,ฉัน
501470,-0.0497,-7.3433,-6.6430,-0.1362,0.0318,0.0093,-47.2841,0.0237,132.7159,0.00,11.75,0.00,0.00,0.00,-4.9963,6.5430,-0.5088,0.4341,1.7911,-0.9723,56.5840,-33.3415,91.9818,0.00,233.27,407.51,484.11,34.02,ฉัน
501536,0.0820,-6.9997,-6.8040,0.0149,-0.0162,-0.0278,-46.5508,0.2516,133.4481,0.00,7.32,0.00,0.00,0.00,-4.9550,7.4498,-0.6483,-0.9019,1.9004,-0.7896,56.3769,-33.4434,93.0804,0.00,241.62,444.65,532.28,20.05,ฉัน
501602,-0.0437,-7.4205,-6.4753,-0.0101,0.0457,0.0023,-47.7240,-0.0019,132.2760,0.00,7.32,0.00,0.00,0.00,-5.2345,7.1481,-0.6584,-1.7241,2.5199,-0.3936,54.9717,-34.7784,93.6682,69.39,275.02,531.31,628.62,15.40,ฉัน
501668,0.0180,-6.9045,-6.8231,-0.2229,0.0003,-0.0378,-46.5389,0.0517,133.4610,0.00,2.90,0.00,0.00,0.00,-5.2650,7.1260,-1.2378,-1.1851,2.5247,-0.2409,53.9294,-35.4488,95.8226,191.90,341.83,617.97,692.85,10.75,ฉัน
501734,-0.0239,-7.3840,-6.5795,0.1761,-0.0136,0.0275,-47.4238,-0.0441,132.5762,0.00,7.32,0.00,0.00,0.00,-5.1226,6.8890,-1.7873,-2.3522,2.7619,-0.0176,52.9521,-35.6523,98.7713,428.18,475.45,692.25,789.20,6.09,ฉัน
501800,0.1329,-7.1918,-6.6549,-0.1667,0.0802,-0.0217,-47.3211,0.3659,132.6766,0.00,2.90,0.00,0.00,0.00,-5.2662,7.2056,-1.7843,-1.2021,3.0927,0.3618,52.6605,-35.5100,100.0587,664.46,709.29,828.44,949.77,1.44,ฉัน
501866,0.0718,-6.9686,-6.7273,0.1459,-0.0367,-0.0030,-46.6685,0.3952,133.3288,0.00,7.32,0.00,0.00,0.00,-2.9432,8.8391,-2.2524,-1.3807,3.9910,0.7712,60.5930,-26.3992,102.0245,935.74,1000.00,1000.00,1000.00,0.00,ฉัน
501932,-0.0521,-7.4103,-6.4975,0.0547,-0.0158,-0.0050,-47.7182,0.0443,132.2818,0.00,2.90,0.00,0.00,0.00,-3.4184,7.4049,-3.2383,-1.4148,3.9579,0.6262,59.4270,-24.7862,106.7392,1000.00,1000.00,1000.00,1000.00,0.00,ฉัน
501998,0.0305,-6.6932,-6.9165,-0.2552,0.0229,-0.0142,-45.9056,0.1125,134.0942,0.00,2.90,0.00,0.00,0.00,-3.4711,7.9586,-3.5729,-0.8608,2.9279,0.3554,58.7982,-23.2289,109.6269,1000.00,1000.00,1000.00,1000.00,0.00,ฉัน
502064,0.0078,-7.1847,-6.4795,0.0928,-0.0172,0.0090,-46.9281,0.0793,133.0718,0.00,7.32,0.00,0.00,0.00,-2.8672,7.7455,-3.4645,-2.7928,3.0681,-0.1926,59.4188,-20.9791,111.1898,1000.00,1000.00,1000.00,1000.00,0.00,ฉัน
502130,-0.0012,-7.2601,-6.6226,-0.2511,0.0699,-0.0345,-47.2811,0.0359,132.7189,0.00,2.90,0.00,0.00,0.00,-2.7091,7.7731,-2.8163,-2.6322,3.1279,0.2863,61.3272,-19.5942,110.0688,1000.00,1000.00,1000.00,1000.00,0.00,ฉัน
502196,0.0946,-6.9847,-6.7968,-0.0255,-0.0052,-0.0275,-46.5309,0.2958,133.4676,0.00,2.90,0.00,0.00,0.00,-2.1034,8.2657,-2.5326,-3.2766,2.9707,0.1984,64.8289,-16.6406,108.3290,1000.00,1000.00,1000.00,1000.00,0.00,ฉัน
502262,0.0239,-7.3181,-6.4346,-0.0658,0.0304,-0.0056,-47.6029,0.2184,132.3963,0.00,2.90,0.00,0.00,0.00,-1.2462,8.7356,-2.0268,-2.2830,2.8764,0.7221,69.9264,-12.2467,105.6543,1000.00,1000.00,1000.00,1000.00,0.00,ฉัน
502328,0.0958,-6.8219,-6.8237,-0.0153,0.0037,-0.0523,-46.3030,0.3927,133.6943,0.00,2.90,0.00,0.00,0.00,-1.1086,9.8615,-1.2971,-3.0952,3.0637,0.7884,75.3530,-9.1588,101.3312,1000.00,1000.00,1000.00,1000.00,0.00,ฉัน
502394,-0.0640,-7.1673,-6.6238,0.0469,-0.0019,0.0357,-46.7822,0.0071,133.2178,0.00,2.90,0.00,0.00,0.00,-0.7895,9.6406,-0.9422,-2.7095,1.9631,0.1311,79.1001,-6.8839,98.4100,1000.00,1000.00,1000.00,1000.00,0.00,ฉัน
502460,0.0952,-7.0105,-6.7273,-0.1996,0.0259,-0.0121,-46.4809,0.2840,133.5177,0.00,2.90,0.00,0.00,0.00,-0.8188,9.9363,-0.6135,-1.7443,1.1168,0.0543,81.7215,-5.7740,95.9123,1000.00,1000.00,1000.00,1000.00,0.00,ฉัน
502526,0.0311,-7.1900,-6.5993,0.0664,-0.0031,0.0045,-46.9679,0.2333,133.0312,0.00,2.90,0.00,0.00,0.00,-0.6171,10.3571,-0.4842,-1.0396,1.0189,0.4844,83.7689,-4.5551,94.2427,1000.00,1000.00,1000.00,1000.00,0.00,ฉัน
502592,0.0311,-7.1900,-6.5993,0.0664,-0.0031,0.0045,-47.2107,0.2080,132.7886,0.00,2.90,0.00,0.00,0.00,-0.7410,10.3774,0.1796,-1.0852,0.9133,0.3261,85.3977,-4.3201,91.5837,997.00,1000.00,1000.00,1000.00,0.00,ฉัน
502659,0.0892,-7.0063,-6.7627,-0.0279,0.0050,0.0052,-46.6115,0.3663,133.3862,0.00,11.75,0.00,0.00,0.00,-1.2474,9.8806,0.3645,-0.6429,0.5208,-0.0372,84.2554,-5.7399,89.7673,970.75,1000.00,1000.00,992.59,0.00,ฉัน
502725,0.0239,-7.1326,-6.5651,-0.0818,0.0548,-0.0228,-46.9909,0.2542,133.0080,0.00,2.90,0.00,0.00,0.00,-1.1397,9.3988,0.6704,-0.6177,0.9362,0.0447,83.3579,-6.3041,87.9165,953.24,1000.00,1000.00,981.89,0.00,ฉัน
502791,0.1389,-7.1835,-6.7232,-0.1157,0.0082,-0.0173,-46.9407,0.5331,133.0543,0.00,2.90,0.00,0.00,0.00,-0.9733,9.2234,0.5052,-0.4536,0.9632,0.4012,83.3117,-6.1634,87.4127,918.24,1000.00,1000.00,981.89,0.00,ฉัน
502857,0.1012,-7.2074,-6.6340,0.0901,-0.0168,-0.0249,-47.1551,0.5624,132.8394,0.00,2.90,0.00,0.00,0.00,-0.5716,9.6017,0.6770,-0.7644,1.2391,0.4829,84.1857,-4.7737,86.6884,891.99,1000.00,1000.00,971.18,0.00,ฉัน
502923,0.0383,-7.0787,-6.7351,-0.0380,0.0146,0.0038,-46.7903,0.3937,133.2070,0.00,2.90,0.00,0.00,0.00,-0.4956,10.0716,0.8338,-0.6863,1.2009,0.4465,84.4745,-3.7644,85.9610,865.73,1000.00,1000.00,965.83,0.00,ฉัน
502989,0.1071,-7.0326,-6.7016,-0.0496,0.0190,-0.0075,-46.5844,0.5124,133.4110,0.00,2.90,0.00,0.00,0.00,0.7428,10.3960,0.2179,-0.2855,0.5667,-0.1493,87.4016,0.2725,87.4160,839.48,1000.00,1000.00,960.48,0.00,ฉัน
503055,0.0341,-7.2661,-6.5544,-0.0130,0.0095,-0.0029,-47.2675,0.3558,132.7302,0.00,2.90,0.00,0.00,0.00,-0.4735,9.1719,0.8739,-0.1519,0.2060,0.1740,85.8565,-1.2615,86.0539,830.73,1000.00,1000.00,960.48,0.00,ฉัน
503121,0.1191,-7.0398,-6.7423,-0.0162,0.0147,-0.0286,-46.7505,0.5278,133.2446,0.00,2.90,0.00,0.00,0.00,-0.4519,9.7962,0.7889,-0.3669,0.0879,0.1305,85.2974,-1.9534,85.7240,804.48,1000.00,1000.00,955.12,0.00,ฉัน
503187,0.0114,-7.1481,-6.6160,-0.0105,-0.0134,0.0022,-46.9825,0.2976,133.0159,0.00,7.32,0.00,0.00,0.00,-0.2789,10.0967,0.8997,-0.3287,0.1358,0.0784,84.9879,-1.7611,85.3090,795.72,1000.00,1000.00,955.12,0.00,ฉัน
503253,0.1042,-7.1080,-6.7214,-0.1177,-0.0041,-0.0063,-46.7902,0.4541,133.2062,0.00,2.90,0.00,0.00,0.00,-0.2951,9.4012,0.5459,-0.3077,0.1153,-0.0866,85.5989,-1.7777,85.9752,778.22,1000.00,1000.00,955.12,0.00,ฉัน
503319,0.0269,-7.1829,-6.6777,0.0348,0.0120,0.0098,-46.9392,0.3054,133.0591,0.00,2.90,0.00,0.00,0.00,-0.4166,9.4963,0.7506,-0.3301,0.1040,-0.0956,85.2245,-2.1382,85.7319,778.22,1000.00,1000.00,949.77,0.00,ฉัน
503385,0.0365,-7.2810,-6.5861,-0.0324,0.0386,-0.0274,-47.4046,0.2592,132.5942,0.00,2.90,0.00,0.00,0.00,-0.5166,9.7896,0.8003,-0.4067,0.1370,-0.0211,84.8365,-2.5794,85.5300,769.47,1000.00,1000.00,955.12,0.00,ฉัน
503451,0.0868,-7.1428,-6.6854,-0.0134,0.0022,-0.0165,-47.1485,0.3836,132.8489,0.00,2.90,0.00,0.00,0.00,-0.5279,9.7178,0.8290,-0.2603,0.1485,-0.0026,84.5312,-2.8396,85.3300,769.47,1000.00,1000.00,949.77,0.00,ฉัน
503517,0.0275,-7.1918,-6.6430,-0.0177,0.0217,-0.0136,-47.2103,0.2724,132.7884,0.00,2.90,0.00,0.00,0.00,-0.5034,9.7956,0.8254,-0.2297,0.0825,0.0176,84.4468,-2.8858,85.2595,769.47,1000.00,1000.00,944.42,0.00,ฉัน
503583,0.1155,-7.1068,-6.7112,-0.0559,-0.0119,0.0213,-46.9237,0.4746,133.0724,0.00,2.90,0.00,0.00,0.00,-0.4789,9.7747,0.9847,-0.2658,0.0449,0.0259,84.0334,-2.8382,84.7560,760.72,1000.00,1000.00,944.42,0.00,ฉัน
503649,0.0509,-7.2230,-6.4556,-0.0443,0.0109,-0.0255,-47.5638,0.3882,132.4336,0.00,2.90,0.00,0.00,0.00,-0.6231,9.7052,0.9284,-0.1190,0.0405,0.0413,83.7384,-3.2466,84.6516,760.72,1000.00,1000.00,939.07,0.00,ฉัน
503715,0.1155,-7.1673,-6.6322,0.0026,0.0076,-0.0270,-47.3900,0.5332,132.6050,0.00,2.90,0.00,0.00,0.00,-0.3148,9.7088,0.7979,-0.2296,0.1042,0.0811,84.3634,-2.5505,84.9768,760.72,1000.00,1000.00,928.36,0.00,ฉัน
503781,0.0628,-7.1475,-6.6783,0.0076,-0.0033,-0.0155,-47.1661,0.4505,132.8304,0.00,2.90,0.00,0.00,0.00,-0.3460,9.8196,0.7698,-0.2534,0.1287,0.0116,84.7287,-2.2799,85.2498,751.97,1000.00,1000.00,933.71,0.00,ฉัน
503847,0.0904,-7.0817,-6.7112,-0.0158,0.0018,-0.0161,-46.8513,0.4906,133.1445,0.00,2.90,0.00,0.00,0.00,-0.4262,9.7495,0.8835,-0.2225,0.1182,-0.0090,84.4919,-2.3863,85.0385,751.97,1000.00,1000.00,928.36,0.00,ฉัน
503913,0.0575,-7.1434,-6.6585,-0.0033,0.0060,-0.0059,-46.9311,0.4139,133.0659,0.00,2.90,0.00,0.00,0.00,-0.4920,9.5969,0.9852,-0.1797,0.0153,0.0541,83.9769,-2.6511,84.5955,760.72,1000.00,1000.00,923.01,0.00,ฉัน
503979,0.0832,-7.1015,-6.6274,-0.0514,-0.0100,0.0119,-46.9532,0.4522,133.0432,0.00,2.90,0.00,0.00,0.00,-0.3675,9.5825,0.7440,-0.2823,0.0915,-0.0605,84.5105,-2.4219,85.0766,769.47,1000.00,1000.00,928.36,0.00,ฉัน
504045,0.0437,-7.1745,-6.6382,-0.1037,0.0334,-0.0159,-47.0884,0.3540,132.9094,0.00,2.90,0.00,0.00,0.00,-0.4232,9.7896,0.9284,-0.2897,0.0701,-0.0424,84.2789,-2.4433,84.8300,751.97,1000.00,1000.00,923.01,0.00,ฉัน
504111,0.0485,-7.1715,-6.6465,-0.0308,0.0038,-0.0181,-47.1317,0.3190,132.8665,0.00,2.90,0.00,0.00,0.00,-0.4274,9.7621,0.9218,-0.2592,0.0563,-0.0528,84.1682,-2.4696,84.7202,751.97,1000.00,1000.00,917.66,0.00,ฉัน
504177,0.1030,-7.1392,-6.6495,-0.0346,0.0031,-0.0188,-47.0812,0.4617,132.9151,0.00,2.90,0.00,0.00,0.00,-0.3675,9.6891,0.8218,-0.1890,-0.0204,-0.0046,84.4293,-2.3175,84.9370,751.97,1000.00,1000.00,917.66,0.00,ฉัน
504243,0.0569,-7.1266,-6.6992,-0.0241,0.0232,-0.0147,-46.9253,0.3974,133.0720,0.00,2.90,0.00,0.00,0.00,-0.2526,9.7801,0.8769,-0.1896,-0.0958,-0.1213,84.5647,-1.8942,84.9073,743.22,1000.00,1000.00,912.30,0.00,ฉัน
504309,0.0563,-7.0991,-6.7106,-0.0124,-0.0055,-0.0172,-46.7678,0.3637,133.2299,0.00,2.90,0.00,0.00,0.00,0.6387,11.2687,1.0134,1.0272,-0.0477,0.4691,84.8105,0.8555,84.8819,743.22,1000.00,1000.00,901.60,0.00,ฉัน
504375,0.0581,-7.1547,-6.6046,-0.0049,0.0011,0.0023,-47.0276,0.3527,132.9702,0.00,2.90,0.00,0.00,0.00,2.8247,11.7284,-0.3310,2.4551,-1.2046,0.0890,82.2050,7.6359,88.4420,813.23,1000.00,989.38,917.66,0.00,ฉัน
504441,0.0724,-7.2212,-6.6160,0.0213,-0.0085,-0.0243,-47.2656,0.3883,132.7318,0.00,2.90,0.00,0.00,0.00,1.6000,9.6735,-0.7350,3.3212,-3.2809,-0.2964,81.4635,8.4545,91.1718,568.20,867.96,902.72,832.02,0.00,ฉัน
504507,0.0646,-7.0979,-6.6621,-0.0179,0.0312,-0.0230,-47.0395,0.3844,132.9579,0.00,2.90,0.00,0.00,0.00,0.1437,9.0905,-0.6429,2.6043,-4.0120,0.8863,84.4469,4.9496,92.5113,331.92,776.10,840.82,762.44,0.00,ฉัน
504573,0.0353,-7.1380,-6.6968,-0.0147,-0.0166,-0.0078,-46.9326,0.2954,133.0659,0.00,2.90,0.00,0.00,0.00,-1.2115,8.5273,-1.2450,0.8928,-3.2043,0.4871,84.6416,-1.1457,95.2338,244.41,609.07,729.39,633.98,0.00,ฉัน
504639,0.0377,-7.0530,-6.7160,-0.0973,-0.0074,-0.0303,-46.6675,0.2587,133.3313,0.00,2.90,0.00,0.00,0.00,-1.0756,9.7735,-1.0625,1.5340,-3.3751,0.9749,83.1279,-3.7906,95.7237,209.40,467.10,580.83,457.34,0.00,ฉัน
504705,0.0718,-7.2080,-6.6112,-0.0338,-0.0042,-0.0071,-47.0699,0.3398,132.9281,0.00,2.90,0.00,0.00,0.00,-0.6249,9.6993,-2.2506,1.3664,-2.9775,1.4685,79.8256,-3.6961,99.4659,174.40,358.53,481.79,270.01,0.00,ฉัน
504771,0.0652,-7.1230,-6.7088,-0.0233,0.0061,-0.0245,-46.8918,0.3610,133.1059,0.00,2.90,0.00,0.00,0.00,-0.3801,9.4844,-2.6385,3.2531,-4.4672,1.8869,77.1253,-2.9531,102.5201,174.40,258.32,345.61,157.60,0.00,ฉัน
504837,0.0126,-7.0859,-6.7154,-0.0098,0.0136,-0.0044,-46.7151,0.2175,133.2841,0.00,2.90,0.00,0.00,0.00,-0.5537,8.4201,-3.0808,4.4671,-4.4672,3.1283,73.5312,-3.2381,106.1294,148.15,191.51,234.18,88.02,0.00,ฉัน
504903,0.1006,-7.0554,-6.6944,-0.0792,0.0384,-0.0019,-46.6083,0.4045,133.3888,0.00,2.90,0.00,0.00,0.00,-1.0122,7.4462,-4.2678,4.0983,-4.4672,3.9239,66.7990,-4.9475,112.6066,86.89,133.05,159.90,55.91,0.00,ฉัน
504969,0.1089,-7.1673,-6.6447,-0.0202,0.0195,-0.0093,-46.8861,0.5217,133.1092,0.00,2.90,0.00,0.00,0.00,-0.9978,5.5290,-5.2369,4.4671,-3.2501,4.0015,57.2158,-6.2113,122.0430,0.00,99.65,122.76,45.20,0.00,ฉัน
505035,0.0994,-7.1499,-6.6938,-0.0053,0.0262,0.0074,-46.8850,0.5515,133.1097,0.00,2.90,0.00,0.00,0.00,0.3873,7.0775,-5.9235,3.0233,-2.0231,3.2299,53.6319,-1.6437,126.3187,0.00,74.59,110.38,34.50,0.00,ฉัน
505101,0.1024,-7.0386,-6.7142,-0.0275,0.0780,0.0083,-46.6172,0.5771,133.3770,0.00,2.90,0.00,0.00,0.00,1.3193,7.6934,-7.1966,1.5094,-0.2245,2.4694,49.8506,3.1991,129.9683,0.00,57.89,85.62,29.14,0.00,ฉัน
505167,0.0503,-7.1314,-6.6884,-0.1024,0.0170,-0.0112,-46.7264,0.4357,133.2703,0.00,2.90,0.00,0.00,0.00,1.4845,7.3786,-7.9670,1.4747,-0.5832,1.7615,45.8667,5.6550,133.5765,0.00,49.54,85.62,23.79,0.00,ฉัน
505234,0.0910,-7.0859,-6.7112,-0.0496,0.0258,-0.0289,-46.6398,0.4849,133.3561,0.00,2.90,0.00,0.00,0.00,2.0986,5.5607,-8.6613,1.3359,-0.2192,1.4452,38.8604,8.6846,139.8089,0.00,32.84,73.24,18.44,0.00,ฉัน
505300,0.1449,-7.0685,-6.7154,-0.0428,0.0371,-0.0134,-46.5507,0.6679,133.4415,0.00,2.90,0.00,0.00,0.00,1.5180,5.2267,-8.0520,3.1604,0.3341,1.5498,35.7880,8.8444,142.7954,0.00,32.84,73.24,18.44,0.00,ฉัน
505366,0.1383,-7.1116,-6.7244,-0.0562,0.0533,-0.0014,-46.5741,0.7388,133.4164,0.00,2.90,0.00,0.00,0.00,2.0256,6.1390,-8.6865,1.9589,0.2198,1.4813,35.1429,9.8524,143.0934,0.00,32.84,73.24,18.44,0.00,ฉัน
505432,0.1107,-7.1595,-6.6854,-0.0116,0.0112,-0.0209,-46.7659,0.6932,133.2257,0.00,2.90,0.00,0.00,0.00,2.8031,4.7054,-9.3934,0.1307,0.1093,1.1025,30.3073,12.4900,146.6996,0.00,24.49,73.24,18.44,0.00,ฉัน
505498,0.1185,-7.1721,-6.7016,-0.0316,0.0074,-0.0091,-46.8520,0.6925,133.1396,0.00,2.90,0.00,0.00,0.00,2.3261,2.9372,-9.1276,-0.0086,0.6680,0.8769,24.0461,13.1274,152.1931,0.00,24.49,73.24,18.44,0.00,ฉัน
505564,0.1245,-7.0709,-6.7040,-0.0780,0.0515,-0.0322,-46.6869,0.7122,133.3042,0.00,2.90,0.00,0.00,0.00,4.1074,4.1589,-13.2398,-0.9678,0.0454,0.0838,19.7356,15.1294,154.7360,0.00,32.84,73.24,18.44,0.00,ฉัน
505630,0.1059,-7.1511,-6.6753,-0.1310,0.0344,-0.0154,-46.8273,0.6663,133.1649,0.00,2.90,0.00,0.00,0.00,1.6898,3.6273,-7.9730,-0.3750,0.5114,0.1663,21.5379,13.3665,154.2884,0.00,24.49,60.86,18.44,0.00,ฉัน
505696,0.1969,-7.1038,-6.7250,-0.1471,0.0438,-0.0425,-46.6928,0.9099,133.2928,0.00,2.90,0.00,0.00,0.00,2.1411,4.1714,-8.4183,-0.9998,-0.3719,0.0056,23.4975,13.1232,152.6888,0.00,16.13,73.24,18.44,0.00,ฉัน
505762,0.1502,-7.0314,-6.7908,-0.0686,0.0459,-0.0318,-46.3416,0.8952,133.6444,0.00,2.90,0.00,0.00,0.00,1.9813,3.8943,-9.4018,-0.2699,-0.4570,0.0671,22.7758,12.0582,153.9028,0.00,16.13,73.24,23.79,0.00,ฉัน
505828,-0.1646,-6.6124,-7.0212,-0.0457,0.0559,-0.1725,-44.8261,-0.0349,135.1738,0.00,2.90,0.00,0.00,0.00,1.9472,3.9242,-8.9253,-0.1202,-0.1149,0.1202,23.0085,11.6817,153.8836,0.00,16.13,73.24,18.44,0.00,break_time
505894,0.4920,-7.0218,-6.6537,-0.1384,0.0128,-0.0001,-45.6641,1.4369,134.2999,0.00,2.90,0.00,0.00,0.00,2.1519,3.8201,-8.9690,-0.3834,0.0158,0.0628,22.7549,12.0627,153.9193,0.00,24.49,60.86,18.44,0.00,break_time
505960,0.2975,-7.0703,-6.8064,-0.0547,-0.0045,0.0034,-45.8648,1.5876,134.0912,0.00,2.90,0.00,0.00,0.00,1.9615,3.8811,-9.0911,-0.3032,-0.0469,0.0221,22.7037,11.6424,154.1804,0.00,24.49,73.24,18.44,0.00,break_time
506026,0.1030,-6.8524,-6.8782,0.0545,-0.0507,0.0068,-45.3804,1.0988,134.5985,0.00,2.90,0.00,0.00,0.00,2.0842,3.8273,-8.8577,-0.4369,-0.1647,0.0110,22.7574,11.9130,153.9942,0.00,24.49,60.86,18.44,0.00,break_time
506092,0.1622,-7.0033,-6.8896,-0.0417,0.0030,-0.0395,-45.4210,1.0220,134.5608,0.00,2.90,0.00,0.00,0.00,1.9741,3.7393,-8.9935,-0.3393,-0.1204,0.0406,22.4305,11.6858,154.4061,0.00,16.13,60.86,18.44,0.00,break_time
506158,0.2017,-6.9488,-6.8662,-0.0080,-0.0192,-0.0155,-45.3757,1.1024,134.6031,0.00,2.90,0.00,0.00,0.00,1.7634,4.0775,-8.9307,-0.3910,-0.0440,0.0281,23.2823,10.9344,153.9968,0.00,16.13,60.86,23.79,0.00,break_time
506224,0.1909,-6.9883,-6.8261,0.0303,-0.0266,0.0105,-45.5186,1.1111,134.4599,0.00,2.90,0.00,0.00,0.00,1.8424,4.0428,-8.9283,-0.3314,0.0014,0.0369,23.5991,10.7905,153.7718,0.00,24.49,60.86,18.44,0.00,break_time
506290,0.2328,-7.0608,-6.7657,-0.0143,-0.0262,0.0230,-45.8625,1.2376,134.1108,0.00,2.90,0.00,0.00,0.00,1.7598,4.1337,-8.9463,-0.2215,-0.0308,0.0369,23.9949,10.4569,153.5562,0.00,16.13,60.86,18.44,0.00,break_time
506356,0.1413,-7.0434,-6.7627,0.0792,-0.0219,0.0026,-46.0108,1.0334,133.9705,0.00,2.90,0.00,0.00,0.00,1.7359,4.1038,-8.8978,-0.2709,0.0509,0.0277,24.1750,10.2519,153.4789,0.00,16.13,73.24,18.44,0.00,break_time
506422,0.1083,-6.9620,-6.8225,0.0305,-0.0603,0.0267,-45.7941,0.8353,134.1938,0.00,2.90,0.00,0.00,0.00,1.8029,4.0906,-9.2270,-0.3735,-0.0151,0.0902,23.8400,10.1891,153.8195,0.00,16.13,60.86,18.44,0.00,break_time
506488,0.1616,-7.0841,-6.7441,-0.0538,-0.0151,0.0139,-46.0975,0.8911,133.8886,0.00,2.90,0.00,0.00,0.00,1.6455,4.3384,-8.9331,-0.3613,0.1170,-0.0105,24.6837,9.8004,153.1943,0.00,16.13,60.86,23.79,0.00,break_time
506554,0.0658,-7.0931,-6.7244,0.0326,-0.0155,-0.0049,-46.3130,0.6385,133.6799,0.00,2.90,0.00,0.00,0.00,1.7197,4.2056,-8.9014,-0.0513,0.1416,0.0609,24.7843,9.8542,153.0770,0.00,16.13,60.86,18.44,0.00,break_time
506620,0.1161,-7.1200,-6.7160,-0.0551,0.0213,-0.0048,-46.4908,0.6591,133.5016,0.00,2.90,0.00,0.00,0.00,1.6263,3.6962,-8.7326,-0.2752,0.1197,0.0149,23.7120,9.7962,154.1096,0.00,16.13,60.86,23.79,0.00,break_time
506686,0.1461,-7.0733,-6.7477,0.0033,0.0038,-0.0097,-46.4170,0.7575,133.5730,0.00,2.90,0.00,0.00,0.00,1.6461,3.9596,-8.8409,-0.2897,0.0671,0.0029,23.7380,9.7200,154.1176,0.00,16.13,73.24,18.44,0.00,break_time
506752,0.1059,-7.0715,-6.7148,-0.0128,-0.0042,0.0026,-46.4479,0.6901,133.5438,0.00,2.90,0.00,0.00,0.00,1.7400,4.0481,-8.9528,-0.2973,0.1002,-0.0138,23.8370,9.8826,153.9554,0.00,16.13,60.86,18.44,0.00,break_time
506818,0.0976,-7.0805,-6.8860,-0.0297,-0.0087,0.0040,-46.1197,0.6277,133.8734,0.00,2.90,0.00,0.00,0.00,1.8059,4.0900,-8.9283,-0.1966,0.1264,0.0074,24.0097,10.1523,153.6771,0.00,16.13,60.86,23.79,0.00,break_time
506884,0.0994,-7.0416,-6.7519,-0.0284,-0.0076,-0.0033,-46.1598,0.6057,133.8338,0.00,2.90,0.00,0.00,0.00,1.6970,4.0206,-8.9283,-0.2019,0.0836,0.0030,23.9373,9.9921,153.8143,0.00,24.49,60.86,23.79,0.00,break_time
506950,0.0401,-7.1074,-6.7297,0.0023,0.0256,-0.0091,-46.3617,0.4202,133.6352,0.00,2.90,0.00,0.00,0.00,1.7221,4.0799,-8.9109,-0.2349,0.1020,-0.0079,24.0714,9.9791,153.6943,0.00,16.13,73.24,23.79,0.00,break_time
507016,0.1233,-6.9967,-6.7836,-0.0067,-0.0004,0.0151,-46.1222,0.5722,133.8721,0.00,2.90,0.00,0.00,0.00,1.7400,4.1044,-8.9151,-0.2105,0.1091,0.0078,24.1940,10.0164,153.5633,0.00,16.13,60.86,23.79,0.00,break_time
507082,0.0952,-7.0572,-6.7483,-0.0615,0.0035,-0.0049,-46.2005,0.5653,133.7939,0.00,2.90,0.00,0.00,0.00,1.7568,4.0876,-8.9313,-0.2307,0.1200,0.0213,24.1888,10.0786,153.5414,0.00,16.13,73.24,23.79,0.00,break_time
507148,0.1185,-7.0398,-6.7698,0.0097,-0.0174,0.0130,-46.1580,0.6303,133.8350,0.00,2.90,0.00,0.00,0.00,1.7843,4.0194,-8.8864,-0.2538,0.0934,0.0154,24.0525,10.2228,153.6062,0.00,16.13,60.86,23.79,0.00,break_time
507214,0.1305,-7.0871,-6.7076,-0.0836,0.0273,-0.0093,-46.3642,0.6982,133.6273,0.00,2.90,0.00,0.00,0.00,1.6329,4.2433,-8.8870,-0.2656,0.0928,0.0041,24.6055,9.8182,153.2606,0.00,16.13,60.86,18.44,0.00,break_time
507280,0.0742,-7.1027,-6.7262,-0.0292,0.0064,0.0106,-46.4613,0.5663,133.5331,0.00,2.90,0.00,0.00,0.00,1.6437,4.1870,-8.9439,-0.2564,0.0964,-0.0008,24.6645,9.6335,153.2815,0.00,16.13,60.86,23.79,0.00,break_time
507346,0.0760,-7.0111,-6.7369,-0.0146,0.0159,-0.0166,-46.3013,0.5073,133.6942,0.00,2.90,0.00,0.00,0.00,1.6922,4.1697,-8.9091,-0.2376,0.0743,-0.0131,24.6787,9.6972,153.2418,0.00,16.13,60.86,23.79,0.00,break_time
507412,0.0718,-7.0236,-6.8022,-0.0300,0.0007,-0.0327,-46.1085,0.4640,133.8878,0.00,7.32,0.00,0.00,0.00,1.7389,4.0924,-8.9145,-0.2296,0.0928,0.0089,24.4674,9.8747,153.3668,0.00,16.13,60.86,23.79,0.00,break_time
507478,0.0934,-7.0470,-6.7645,-0.0684,0.0232,0.0172,-46.1388,0.5059,133.8567,0.00,2.90,0.00,0.00,0.00,1.7035,4.0912,-8.9061,-0.1896,0.0924,-0.0034,24.3761,9.8675,153.4558,0.00,16.13,73.24,23.79,0.00,break_time
507544,0.0946,-7.1679,-6.7136,-0.0672,0.0248,0.0113,-46.5063,0.5289,133.4888,0.00,7.32,0.00,0.00,0.00,1.7347,4.1056,-9.0378,-0.2204,0.0845,0.0045,24.2085,9.8900,153.6037,0.00,16.13,73.24,23.79,0.00,break_time
507610,0.1514,-7.1236,-6.7262,-0.0063,0.0000,-0.0113,-46.5717,0.7073,133.4195,0.00,2.90,0.00,0.00,0.00,1.7808,4.1206,-8.9588,-0.1382,0.1302,-0.0003,24.2449,10.0633,153.4954,0.00,32.84,73.24,23.79,0.00,break_time
507676,0.1269,-7.0177,-6.7728,0.0251,0.0016,-0.0275,-46.2925,0.7263,133.6983,0.00,2.90,0.00,0.00,0.00,1.7347,4.1870,-8.8589,-0.2328,0.1152,-0.0061,24.5629,10.0515,153.2020,0.00,16.13,73.24,23.79,0.00,break_time
507742,0.0658,-7.0314,-6.8333,0.0080,0.0000,0.0121,-46.0548,0.5553,133.9398,0.00,2.90,0.00,0.00,0.00,1.7239,4.1068,-8.8978,-0.2090,0.1498,0.0169,24.4699,10.0142,153.3053,0.00,24.49,60.86,23.79,0.00,break_time
507808,0.1377,-6.9722,-6.7531,-0.0803,0.0675,-0.0168,-45.9821,0.6834,134.0097,0.00,2.90,0.00,0.00,0.00,1.7520,4.0577,-8.9720,-0.2061,0.1003,-0.0138,24.2023,10.0517,153.5404,0.00,24.49,73.24,29.14,0.00,break_time
507874,0.1251,-7.1236,-6.7082,-0.0263,-0.0020,0.0117,-46.3494,0.7080,133.6418,0.00,2.90,0.00,0.00,0.00,1.7275,4.1194,-8.9091,-0.2334,0.0983,-0.0124,24.3082,10.0167,153.4561,0.00,16.13,60.86,23.79,0.00,break_time
507940,0.1329,-7.0637,-6.7196,-0.0288,0.0004,-0.0198,-46.3871,0.7444,133.6032,0.00,2.90,0.00,0.00,0.00,1.7628,4.1295,-8.9391,-0.3107,0.0887,0.0061,24.3451,10.0833,153.3929,0.00,16.13,60.86,23.79,0.00,break_time
508006,0.1239,-7.0284,-6.7866,-0.0461,0.0218,-0.0045,-46.1925,0.7355,133.7981,0.00,2.90,0.00,0.00,0.00,1.6706,4.0260,-8.9917,-0.2725,0.1162,-0.0076,24.0525,9.8539,153.7655,0.00,24.49,60.86,23.79,0.00,break_time
508072,0.0766,-7.0536,-6.7393,-0.0323,0.0365,-0.0007,-46.2481,0.5928,133.7458,0.00,2.90,0.00,0.00,0.00,1.7293,4.0206,-8.9229,-0.1718,0.1174,0.0053,23.9579,9.9369,153.8188,0.00,16.13,60.86,23.79,0.00,break_time
508138,0.1071,-7.0757,-6.7411,-0.0166,0.0104,0.0120,-46.3159,0.6105,133.6776,0.00,2.90,0.00,0.00,0.00,1.7945,4.0631,-8.9097,-0.1843,0.1095,0.0179,24.0227,10.1606,153.6613,0.00,16.13,60.86,23.79,0.00,break_time
508204,0.1227,-7.0787,-6.7351,-0.0050,-0.0015,-0.0046,-46.3680,0.6650,133.6243,0.00,2.90,0.00,0.00,0.00,1.7107,4.1691,-8.8924,-0.2260,0.1182,0.0105,24.3720,10.0209,153.3943,0.00,24.49,60.86,23.79,0.00,break_time
508270,0.1125,-7.0793,-6.7321,0.0057,-0.0045,0.0000,-46.4020,0.6625,133.5904,0.00,2.90,0.00,0.00,0.00,1.6844,4.0876,-8.9714,-0.2988,0.0799,0.0100,24.2475,9.8579,153.5807,0.00,24.49,60.86,23.79,0.00,break_time
508336,0.1012,-7.0320,-6.7669,-0.0056,-0.0023,-0.0121,-46.2499,0.6282,133.7432,0.00,2.90,0.00,0.00,0.00,1.7819,4.1074,-8.8858,-0.2012,0.0823,-0.0215,24.3143,10.0870,153.4202,0.00,16.13,60.86,23.79,0.00,break_time
508402,0.0952,-7.0871,-6.7267,-0.0374,0.0057,-0.0308,-46.3707,0.5931,133.6231,0.00,7.32,0.00,0.00,0.00,1.7490,4.1337,-8.9044,-0.2026,0.1082,0.0056,24.4026,10.0944,153.3341,0.00,24.49,60.86,23.79,0.00,break_time
508468,0.1107,-7.1015,-6.6914,-0.0487,0.0012,-0.0091,-46.5347,0.6217,133.4586,0.00,2.90,0.00,0.00,0.00,1.7185,4.1930,-8.8750,-0.2604,0.0992,-0.0059,24.6430,10.0126,153.1433,0.00,16.13,73.24,23.79,0.00,break_time
508534,0.1030,-7.0991,-6.7208,-0.0138,-0.0018,-0.0271,-46.5497,0.6125,133.4438,0.00,2.90,0.00,0.00,0.00,1.7149,4.0745,-8.9546,-0.2341,0.0912,0.0174,24.3610,9.9504,153.4348,0.00,24.49,60.86,23.79,0.00,break_time
508600,0.0808,-7.0625,-6.7609,-0.0273,0.0029,-0.0010,-46.3989,0.5430,133.5959,0.00,2.90,0.00,0.00,0.00,1.7209,4.1283,-8.9373,-0.2620,0.0813,0.0056,24.3799,9.9329,153.4246,0.00,24.49,60.86,23.79,0.00,break_time
508666,0.0754,-6.8985,-6.7938,-0.0210,-0.0064,-0.0038,-45.9200,0.4949,134.0757,0.00,2.90,0.00,0.00,0.00,1.7634,4.0936,-8.9570,-0.1930,0.0972,0.0244,24.2661,10.0424,153.4845,0.00,24.49,73.24,23.79,0.00,break_time
508732,0.1131,-7.0356,-6.7920,-0.0150,0.0249,0.0049,-45.9629,0.5791,134.0313,0.00,2.90,0.00,0.00,0.00,1.7179,4.0625,-8.8840,-0.2110,0.0972,0.0057,24.2225,10.0082,153.5401,0.00,16.13,73.24,23.79,0.00,break_time
508798,0.0856,-7.1595,-6.7010,-0.0451,0.0284,-0.0165,-46.4289,0.5395,133.5661,0.00,2.90,0.00,0.00,0.00,1.7131,4.1649,-8.9026,-0.2388,0.0867,0.0005,24.4485,9.9478,153.3537,0.00,16.13,60.86,23.79,0.00,break_time
508864,0.0928,-7.1080,-6.6932,0.0132,-0.0241,-0.0181,-46.5737,0.5420,133.4211,0.00,2.90,0.00,0.00,0.00,1.7215,4.1134,-8.8583,-0.2046,0.0979,0.0038,24.4766,9.9720,153.3170,0.00,16.13,73.24,23.79,0.00,break_time
508930,0.1065,-7.0482,-6.7585,-0.0483,0.0184,-0.0149,-46.3862,0.5835,133.6079,0.00,2.90,0.00,0.00,0.00,1.7598,4.1343,-8.9319,-0.2462,0.0965,0.0207,24.4507,10.0549,153.3060,0.00,24.49,60.86,23.79,0.00,break_time
508996,0.1173,-7.0913,-6.7429,-0.0499,-0.0048,-0.0123,-46.4122,0.6353,133.5807,0.00,2.90,0.00,0.00,0.00,1.6868,4.1613,-8.8858,-0.2548,0.0898,0.0100,24.5787,9.9048,153.2495,0.00,16.13,60.86,23.79,0.00,break_time
509062,0.0952,-7.0841,-6.7256,-0.0712,0.0188,-0.0414,-46.4483,0.5968,133.5455,0.00,2.90,0.00,0.00,0.00,1.6916,4.0398,-8.9756,-0.2611,0.0853,0.0005,24.2188,9.8282,153.6203,0.00,24.49,73.24,23.79,0.00,break_time
509128,0.1269,-7.1086,-6.7345,-0.0172,0.0244,-0.0057,-46.4957,0.6697,133.4964,0.00,2.90,0.00,0.00,0.00,1.6916,4.0523,-8.9355,-0.2394,0.0969,0.0040,24.1183,9.8052,153.7245,0.00,24.49,60.86,23.79,0.00,break_time
509194,0.1191,-6.9758,-6.8153,0.0048,-0.0042,0.0072,-46.0795,0.6847,133.9123,0.00,2.90,0.00,0.00,0.00,1.7185,4.1020,-8.9139,-0.1835,0.1035,-0.0015,24.2173,9.8694,153.6042,0.00,16.13,73.24,18.44,0.00,break_time
509260,0.0539,-7.1302,-6.7495,-0.0691,0.0309,-0.0090,-46.3258,0.4991,133.6698,0.00,2.90,0.00,0.00,0.00,1.6622,4.0948,-8.9085,-0.2060,0.1016,0.0157,24.2666,9.7460,153.6099,0.00,16.13,60.86,23.79,0.00,break_time
509326,0.1646,-7.0099,-6.7561,-0.0161,0.0151,-0.0127,-46.1877,0.7332,133.8030,0.00,2.90,0.00,0.00,0.00,1.6562,4.0499,-8.9349,-0.2303,0.0982,0.0164,24.1442,9.6646,153.7591,0.00,16.13,73.24,23.79,0.00,break_time
509392,0.0952,-7.1110,-6.7238,0.0274,0.0063,0.0011,-46.3944,0.6451,133.5983,0.00,2.90,0.00,0.00,0.00,1.7532,4.1050,-8.9032,-0.2308,0.0885,-0.0067,24.2430,9.9019,153.5663,0.00,24.49,60.86,29.14,0.00,break_time
509458,0.1107,-7.0171,-6.7854,-0.0080,0.0123,-0.0200,-46.1762,0.6475,133.8165,0.00,11.75,0.00,0.00,0.00,1.7197,4.0924,-8.9642,-0.2409,0.0810,0.0035,24.1960,9.9006,153.6110,0.00,16.13,60.86,23.79,0.00,break_time
509524,0.1365,-7.0530,-6.7657,-0.0612,0.0134,-0.0097,-46.1808,0.7238,133.8100,0.00,7.32,0.00,0.00,0.00,1.6437,4.0918,-8.9522,-0.2048,0.0834,0.0070,24.2016,9.6904,153.6944,0.00,16.13,73.24,23.79,0.00,break_time
509590,0.1215,-7.1086,-6.7447,-0.0326,0.0140,-0.0240,-46.3407,0.7171,133.6503,0.00,2.90,0.00,0.00,0.00,1.6622,4.0170,-8.9157,-0.2018,0.0883,0.0153,24.0461,9.6688,153.8497,0.00,7.78,60.86,18.44,0.00,break_time
509656,0.1209,-7.0895,-6.7309,-0.0146,0.0168,-0.0080,-46.4111,0.7129,133.5800,0.00,2.90,0.00,0.00,4.10,1.7227,4.0781,-8.9313,-0.2147,0.0943,0.0089,24.0975,9.8104,153.7418,0.00,24.49,73.24,23.79,0.00,break_time
509722,0.1742,-7.1170,-6.7483,-0.0219,0.0030,-0.0086,-46.4627,0.8654,133.5242,0.00,2.90,0.00,0.00,0.00,1.6622,4.1116,-8.8918,-0.2293,0.0922,-0.0012,24.2702,9.7204,153.6172,0.00,16.13,73.24,23.79,0.00,break_time
509788,0.1472,-7.0003,-6.7393,0.0173,-0.0108,0.0026,-46.2728,0.8668,133.7141,0.00,2.90,0.00,0.00,0.00,1.6880,4.0930,-8.8948,-0.2405,0.0885,0.0093,24.2988,9.7509,153.5776,0.00,16.13,73.24,23.79,0.00,break_time
509854,0.1030,-7.0530,-6.7920,0.0065,-0.0094,-0.0080,-46.1747,0.7344,133.8159,0.00,2.90,0.00,0.00,0.00,1.7233,4.1056,-8.9451,-0.1943,0.1220,0.0045,24.2797,9.8413,153.5574,0.00,16.13,73.24,23.79,0.00,nothing
509920,0.1167,-7.0727,-6.7190,-0.0219,0.0270,-0.0198,-46.3197,0.7100,133.6715,0.00,2.90,0.00,0.00,0.00,1.6993,4.1655,-8.9145,-0.1857,0.1042,0.0046,24.4676,9.8199,153.3897,0.00,24.49,73.24,23.79,0.00,nothing
509986,0.1161,-7.0775,-6.7273,-0.0369,-0.0071,-0.0061,-46.3842,0.6956,133.6073,0.00,2.90,0.00,0.00,0.00,1.7125,4.0242,-8.9852,-0.2661,0.0942,0.0089,24.1071,9.8440,153.7185,0.00,16.13,60.86,23.79,0.00,nothing
510052,0.1089,-7.0560,-6.7160,-0.0532,0.0164,-0.0154,-46.3973,0.6682,133.5949,0.00,2.90,0.00,0.00,0.00,1.7430,4.0571,-8.9666,-0.2326,0.0953,0.0041,24.0279,9.9437,153.7503,0.00,16.13,60.86,23.79,0.00,nothing
510118,0.0904,-7.0709,-6.7064,-0.0383,-0.0068,-0.0100,-46.4552,0.5998,133.5385,0.00,2.90,0.00,0.00,0.00,1.6850,4.1559,-8.8900,-0.2233,0.1018,0.0131,24.3481,9.8435,153.4922,0.00,24.49,73.24,23.79,0.00,nothing
510184,0.1508,-7.0308,-6.7734,-0.0277,0.0165,-0.0236,-46.2582,0.7426,133.7322,0.00,2.90,0.00,0.00,0.00,1.7209,4.1942,-8.8361,-0.2627,0.1032,0.0034,24.6641,9.9111,153.1664,0.00,24.49,60.86,29.14,0.00,nothing
510250,0.1341,-7.0530,-6.7034,-0.0574,0.0151,0.0080,-46.3539,0.7660,133.6358,0.00,2.90,0.00,0.00,0.00,1.7125,4.1206,-8.9056,-0.2198,0.0973,0.0060,24.5499,9.9054,153.2763,0.00,24.49,73.24,23.79,0.00,nothing
510316,0.0898,-7.0769,-6.7507,-0.0361,0.0285,-0.0041,-46.3516,0.6458,133.6411,0.00,2.90,0.00,0.00,0.00,1.6922,4.1074,-8.9073,-0.2517,0.1042,0.0187,24.4608,9.8467,153.3849,0.00,16.13,60.86,23.79,0.00,nothing
510382,0.1077,-7.1410,-6.6789,-0.0364,0.0080,0.0037,-46.6317,0.6386,133.3612,0.00,2.90,0.00,0.00,0.00,1.6431,4.1272,-8.9666,-0.2620,0.1231,-0.0067,24.4095,9.6482,153.5160,0.00,24.49,73.24,23.79,0.00,nothing
510449,0.1634,-7.1098,-6.6747,-0.0504,0.0001,-0.0001,-46.7158,0.7991,133.2730,0.00,2.90,0.00,0.00,0.00,1.6999,4.0781,-8.9061,-0.2397,0.1046,0.0016,24.3135,9.7466,153.5655,0.00,24.49,60.86,23.79,0.00,nothing
510515,0.0736,-7.1230,-6.7309,0.0037,0.0042,-0.0179,-46.6678,0.6144,133.3256,0.00,7.32,0.00,0.00,0.00,1.7185,4.0200,-8.9115,-0.1929,0.1032,-0.0324,24.1024,9.8580,153.7170,0.00,16.13,60.86,23.79,0.00,nothing
510581,0.0425,-7.0619,-6.7872,-0.0106,0.0176,0.0026,-46.4020,0.4314,133.5948,0.00,2.90,0.00,4.11,0.00,1.6999,4.2271,-8.8056,-0.2406,0.1001,0.0202,24.6687,9.8659,153.1811,0.00,24.49,60.86,29.14,0.00,nothing
510647,0.1712,-7.0368,-6.7363,-0.0613,0.0008,-0.0307,-46.3222,0.7184,133.6688,0.00,2.90,0.00,0.00,0.00,1.6383,4.2337,-8.8768,-0.2927,0.0439,-0.0005,24.8987,9.6614,153.0488,0.00,16.13,60.86,23.79,0.00,nothing
510713,0.1538,-7.1805,-6.6908,-0.0145,0.0034,-0.0102,-46.6691,0.8084,133.3195,0.00,2.90,0.00,0.00,0.00,1.7083,4.1894,-8.9307,-0.2236,0.0968,0.0061,24.8180,9.7434,153.0912,0.00,24.49,73.24,23.79,0.00,nothing
510780,0.0832,-7.1206,-6.7142,0.0444,-0.0100,-0.0206,-46.6750,0.6478,133.3176,0.00,2.90,0.00,0.00,0.00,1.6497,4.1643,-8.8804,-0.1823,0.1020,0.0207,24.7849,9.6455,153.1628,0.00,24.49,60.86,23.79,0.00,nothing
510846,0.0934,-6.9219,-6.8333,-0.0060,0.0040,0.0190,-46.0228,0.5991,133.9709,0.00,2.90,0.00,0.00,0.00,1.6006,4.0475,-8.9941,-0.1521,0.0971,0.0350,24.3401,9.4316,153.6703,0.00,24.49,60.86,23.79,0.00,nothing
510912,0.0862,-7.1236,-6.7052,-0.0660,0.0068,0.0038,-46.3772,0.5519,133.6175,0.00,2.90,0.00,0.00,0.00,1.7095,4.1852,-8.8283,-0.1569,0.0961,0.0131,24.6486,9.6777,153.2783,0.00,16.13,73.24,23.79,0.00,คุณ
510978,0.0221,-6.9009,-6.7531,0.0228,0.0998,-0.1838,-46.0014,0.3429,133.9966,0.00,2.90,0.00,0.00,0.00,1.6952,4.2217,-8.8361,-0.1418,0.1110,0.0304,24.8928,9.7492,153.0183,0.00,24.49,73.24,23.79,0.00,คุณ
511045,0.3514,-7.0099,-6.6795,-0.0339,-0.0545,0.0245,-46.1789,1.2095,133.7955,0.00,2.90,0.00,0.00,0.00,1.6892,4.1559,-8.8780,-0.1730,0.1130,-0.0090,24.7943,9.7632,153.1055,0.00,16.13,60.86,23.79,0.00,คุณ
511111,0.0018,-7.1296,-6.7549,0.0532,-0.0386,0.0515,-46.3668,0.6063,133.6268,0.00,2.90,0.00,0.00,0.00,1.8681,3.8339,-9.0821,-0.3410,0.0613,-0.0465,23.6245,10.2510,153.9932,0.00,24.49,60.86,23.79,0.00,คุณ
511177,-0.0263,-6.8991,-6.7190,0.0736,-0.1305,-0.0203,-46.0657,0.2273,133.9334,0.00,2.90,0.00,0.00,0.00,2.5918,2.6684,-9.8788,-2.4465,-1.2914,-1.0853,19.0171,12.3231,157.0752,0.00,24.49,73.24,23.79,0.00,คุณ
511243,0.2310,-6.9895,-6.7178,0.1275,-0.0744,0.0226,-46.0952,0.7964,133.8937,0.00,2.90,0.00,0.00,0.00,1.8813,5.5152,-9.5688,-4.4672,-4.4672,-2.4426,24.4938,10.9797,152.8546,69.39,24.49,73.24,29.14,0.00,คุณ
511309,-0.0982,-7.4636,-6.4993,0.0098,-0.0783,0.0070,-47.5404,0.1070,132.4594,0.00,2.90,0.00,0.00,0.00,-1.8993,9.4317,-6.4849,-4.4672,-4.4672,-2.2705,40.9238,0.3620,139.0739,139.40,32.84,73.24,39.85,6.09,คุณ
511375,0.1347,-7.0649,-6.6884,-0.0695,0.0530,-0.0072,-47.0540,0.4490,132.9425,0.00,2.90,0.00,0.00,0.00,-4.1278,11.0963,-3.7632,-4.4672,-3.4199,-3.2473,55.3959,-10.6868,122.4643,148.15,82.94,98.00,50.55,15.40,คุณ
511441,0.0036,-7.2894,-6.5424,0.0409,0.0207,-0.0106,-47.5740,0.2346,132.4250,0.00,2.90,0.00,0.00,0.00,-4.6066,10.0261,-1.2941,-4.1324,-1.8297,-3.5505,62.8310,-18.0682,109.5799,156.90,124.70,172.28,88.02,20.05,คุณ
511507,0.0569,-7.2134,-6.6280,-0.0094,-0.0215,-0.0027,-47.4973,0.2837,132.5013,0.00,2.90,0.00,0.00,0.00,-5.7547,8.8301,-0.3520,-2.3754,-0.4289,-3.4925,61.6741,-25.8020,100.8886,139.40,108.00,258.94,184.37,20.05,คุณ
511573,0.0198,-7.3355,-6.5155,0.0177,-0.0130,0.0138,-47.9433,0.1994,132.0560,0.00,2.90,0.00,0.00,0.00,-5.7696,5.5565,-0.4627,0.5355,0.9715,-3.0747,54.2904,-34.6165,97.7023,69.39,108.00,382.75,398.47,20.05,คุณ
511639,0.0425,-7.2864,-6.5897,-0.0207,-0.0176,-0.0117,-47.9086,0.2237,132.0905,0.00,2.90,0.00,0.00,0.00,-5.5673,5.5811,-1.2265,1.3760,1.8145,-3.0550,49.6601,-39.1350,98.2668,34.38,116.35,518.93,569.75,6.09,คุณ
511705,0.0251,-7.1805,-6.5885,-0.0597,-0.0285,-0.0143,-47.6859,0.1859,132.3135,0.00,2.90,0.00,0.00,0.00,-6.4227,4.8341,-2.1381,1.3344,2.5233,-2.1913,42.7031,-44.9685,101.6235,34.38,149.75,630.35,671.44,0.00,คุณ
511771,0.0042,-7.1685,-6.5831,-0.0003,-0.0159,-0.0065,-47.5621,0.1055,132.4377,0.00,2.90,0.00,0.00,0.00,-6.4167,3.7465,-3.0761,1.6766,2.2749,-1.7732,35.4663,-49.4394,107.0702,95.64,216.56,704.63,746.38,0.00,คุณ
511837,0.0299,-7.1386,-6.5843,0.0254,-0.0078,-0.0053,-47.4377,0.1409,132.5620,0.00,2.90,0.00,0.00,0.00,-6.4957,2.5020,-4.2121,1.4069,2.2196,-1.4340,26.7909,-52.3419,114.3573,235.66,391.94,803.67,826.67,0.00,คุณ
511903,-0.0090,-7.2116,-6.5765,0.0056,-0.0360,0.0202,-47.5377,0.0440,132.4623,0.00,0.00,0.00,0.00,0.00,-6.6711,1.7562,-5.3734,3.6276,1.8162,-0.9491,18.9288,-51.8997,121.6607,454.43,926.42,977.00,981.89,0.00,คุณ
511969,-0.0180,-7.3044,-6.5202,0.0787,-0.0419,-0.0012,-47.8928,-0.0307,132.1072,0.00,2.90,0.00,0.00,0.00,-6.4191,1.6078,-5.9097,0.8177,1.8961,-0.2688,14.5743,-49.3151,126.9684,699.46,1000.00,1000.00,1000.00,0.00,คุณ
512035,0.0144,-7.2942,-6.4903,-0.0183,0.0020,-0.0341,-48.1151,0.0268,131.8849,0.00,2.90,0.00,0.00,0.00,-5.3590,0.4280,-6.9680,1.8284,1.9973,0.3690,8.6475,-43.7140,134.9903,848.23,1000.00,1000.00,1000.00,0.00,คุณ
512101,-0.0018,-7.2709,-6.5035,0.0165,-0.0275,0.0015,-48.1519,0.0081,131.8481,0.00,2.90,0.00,0.00,0.00,-5.5452,1.6736,-7.4247,3.1793,2.0451,1.5920,9.5012,-39.7112,138.7080,944.49,1000.00,1000.00,1000.00,0.00,คุณ
512167,-0.0192,-7.1871,-6.5544,-0.0517,-0.0056,-0.0123,-47.8944,-0.0522,132.1055,0.00,2.90,0.00,0.00,0.00,-5.1130,2.5697,-8.5548,1.6533,1.6691,1.6546,12.1913,-34.4247,142.8806,1000.00,1000.00,1000.00,1000.00,0.00,คุณ
512233,-0.0407,-7.1709,-6.5831,-0.0397,-0.0404,-0.0164,-47.6707,-0.1459,132.3289,0.00,2.90,0.00,0.00,0.00,-5.1130,0.2550,-8.6428,0.8827,0.7086,1.1837,6.7030,-32.6374,146.5090,961.99,1000.00,1000.00,1000.00,0.00,คุณ
512299,-0.0640,-7.2445,-6.5466,-0.0338,0.0251,-0.0248,-47.7835,-0.2610,132.2153,0.00,2.90,0.00,0.00,0.00,-2.8534,0.1113,-8.0149,1.2758,1.3209,1.5323,3.9577,-26.6113,153.0494,926.99,1000.00,1000.00,1000.00,0.00,คุณ
512365,-0.0156,-7.2427,-6.4927,0.0206,-0.0070,-0.0060,-47.9543,-0.1764,132.0452,0.00,2.90,0.00,0.00,0.00,-4.3307,0.4112,-8.4578,1.2376,1.4997,1.8144,3.2001,-26.8570,152.9221,918.24,1000.00,1000.00,1000.00,0.00,คุณ
512431,-0.0174,-7.2960,-6.4771,-0.0177,0.0134,-0.0119,-48.1785,-0.1392,131.8212,0.00,11.75,0.00,0.00,0.00,-4.1331,1.1157,-8.4794,0.9019,0.5902,1.5263,4.9930,-26.3322,153.1258,900.74,1000.00,1000.00,1000.00,0.00,คุณ
512497,-0.0581,-7.2661,-6.5448,-0.0285,-0.0222,-0.0038,-48.0834,-0.2398,131.9156,0.00,2.90,0.00,0.00,0.00,-2.9121,0.6357,-8.7385,0.3831,0.5461,1.6235,4.4857,-22.3932,157.1135,909.49,1000.00,1000.00,1000.00,0.00,คุณ
512563,-0.0491,-7.1996,-6.5603,-0.0095,-0.0275,-0.0082,-47.8716,-0.2642,132.1272,0.00,2.90,0.00,0.00,0.00,-2.8654,0.9649,-8.8080,0.7036,0.7475,1.6587,5.2214,-20.1551,159.1221,935.74,1000.00,1000.00,1000.00,0.00,คุณ
512629,-0.0545,-7.2900,-6.4574,-0.0330,-0.0108,0.0019,-48.1680,-0.2923,131.8305,0.00,2.90,0.00,0.00,4.10,-2.9976,0.7560,-9.4173,0.4349,0.6735,1.3352,4.7854,-18.8389,160.5180,935.74,1000.00,1000.00,1000.00,0.00,คุณ
512695,-0.0736,-7.2715,-6.4580,-0.0035,0.0085,0.0065,-48.2784,-0.3630,131.7193,0.00,2.90,0.00,0.00,0.00,-2.9348,1.1361,-9.3700,0.2139,0.4193,1.0473,5.7065,-18.0463,161.0131,918.24,1000.00,1000.00,1000.00,0.00,คุณ
512761,-0.0078,-7.2924,-6.4765,-0.0120,-0.0106,-0.0035,-48.3350,-0.2042,131.6643,0.00,2.90,0.00,0.00,0.00,-2.6654,1.1493,-9.4407,-0.1438,0.2894,0.6549,6.1990,-16.8435,161.9874,909.49,1000.00,1000.00,1000.00,0.00,คุณ
512827,-0.0862,-7.3157,-6.4604,-0.0200,0.0140,-0.0079,-48.4430,-0.3552,131.5548,0.00,2.90,0.00,0.00,0.00,-2.3650,1.0080,-9.3736,-0.1102,0.6713,0.8150,6.0781,-15.4690,163.3236,900.74,1000.00,1000.00,1000.00,0.00,คุณ
512893,-0.0575,-7.2792,-6.4933,-0.0774,0.0203,-0.0145,-48.3539,-0.3464,131.6440,0.00,2.90,0.00,0.00,0.00,-2.1321,1.4048,-9.0959,-0.4863,0.8180,0.4792,7.2963,-14.2789,163.8938,909.49,1000.00,1000.00,1000.00,0.00,คุณ
512959,-0.0425,-7.3026,-6.4496,-0.0203,0.0121,0.0139,-48.4512,-0.2982,131.5472,0.00,2.90,0.00,0.00,0.00,-1.9621,1.3582,-9.1438,-0.6459,0.3782,0.2532,7.7775,-13.1406,164.6586,909.49,1000.00,1000.00,1000.00,0.00,คุณ
513025,-0.0760,-7.3074,-6.5454,-0.0068,-0.0026,-0.0065,-48.2984,-0.3713,131.6991,0.00,2.90,0.00,0.00,0.00,-1.6880,1.3462,-9.3228,-0.3250,0.2498,0.2394,7.9353,-11.6465,165.8439,900.74,1000.00,1000.00,997.94,0.00,คุณ
513091,-0.0323,-7.2996,-6.4616,-0.0273,0.0059,-0.0165,-48.3914,-0.2808,131.6073,0.00,2.90,0.00,0.00,0.00,-1.7622,2.1345,-9.2461,-0.0509,0.3437,0.2348,10.3702,-11.0900,164.7256,891.99,1000.00,1000.00,992.59,0.00,คุณ
513157,-0.1036,-7.3074,-6.4454,-0.0214,-0.0100,0.0019,-48.4872,-0.4447,131.5094,0.00,2.90,0.00,0.00,0.00,-1.9819,1.5623,-9.1959,-0.4635,0.3185,0.0402,9.9014,-11.5418,164.7031,891.99,1000.00,1000.00,992.59,0.00,คุณ
513223,-0.0521,-7.2744,-6.4921,-0.0188,-0.0142,-0.0109,-48.3695,-0.3754,131.6281,0.00,2.90,0.00,0.00,0.00,-1.7640,1.9280,-9.2988,-0.1967,0.1471,0.0100,10.7121,-11.0308,164.5287,883.23,1000.00,1000.00,981.89,0.00,คุณ
513289,-0.1053,-7.3098,-6.4807,-0.0327,0.0046,0.0159,-48.4031,-0.4967,131.5925,0.00,2.90,0.00,0.00,0.00,-1.4150,2.0872,-9.5837,-0.2217,0.1459,-0.1534,11.4499,-9.5989,164.9742,865.73,1000.00,1000.00,981.89,0.00,คุณ
513355,-0.0605,-7.3529,-6.4454,-0.0229,-0.0093,0.0026,-48.5825,-0.4254,131.4144,0.00,2.90,0.00,0.00,0.00,-1.6622,1.6946,-9.6592,-0.0991,0.1806,-0.0568,10.6216,-9.6107,165.5999,865.73,1000.00,1000.00,981.89,0.00,คุณ
513421,-0.0736,-7.3511,-6.4149,-0.0204,0.0030,-0.0075,-48.7354,-0.4289,131.2614,0.00,2.90,0.00,0.00,0.00,-1.7778,1.3749,-9.4437,0.0660,-0.0961,-0.0491,9.3914,-10.0804,166.1550,865.73,1000.00,1000.00,976.53,0.00,คุณ
513487,-0.0581,-7.2523,-6.4718,-0.0048,0.0046,-0.0299,-48.4952,-0.3857,131.5021,0.00,2.90,0.00,0.00,0.00,-1.8340,1.1768,-9.0648,-0.5711,0.1117,-0.1354,8.3473,-10.6996,166.3683,856.98,1000.00,1000.00,971.18,0.00,คุณ
513553,-0.0892,-7.2637,-6.4999,0.0068,0.0014,-0.0361,-48.3344,-0.4550,131.6620,0.00,2.90,0.00,4.11,0.00,-1.9400,0.6919,-9.1145,-0.7682,0.1610,-0.2018,6.3194,-11.3414,166.9758,856.98,1000.00,1000.00,965.83,0.00,คุณ
513619,-0.0796,-7.2738,-6.5113,0.0104,-0.0131,0.0333,-48.2492,-0.4611,131.7471,0.00,2.90,0.00,0.00,0.00,-1.6335,1.0230,-9.3299,-0.0757,0.0896,0.0425,6.2419,-10.6037,167.6587,848.23,1000.00,1000.00,965.83,0.00,คุณ
513685,-0.0814,-7.3092,-6.4879,-0.0443,0.0085,0.0012,-48.3268,-0.4692,131.6694,0.00,2.90,0.00,0.00,0.00,-1.4803,1.8526,-9.4778,-0.2679,0.1573,-0.0230,8.6223,-9.6530,167.0013,848.23,1000.00,1000.00,960.48,0.00,คุณ
513751,-0.1107,-7.2499,-6.4957,-0.0011,0.0252,-0.0173,-48.2318,-0.5603,131.7627,0.00,2.90,0.00,0.00,0.00,-1.7472,1.6808,-9.4461,-0.1551,0.0244,0.0031,9.2781,-9.9900,166.3005,839.48,1000.00,1000.00,960.48,0.00,คุณ
513817,-0.1173,-7.2732,-6.4903,-0.0626,0.0072,-0.0151,-48.2415,-0.6249,131.7516,0.00,7.32,0.00,0.00,0.00,-1.6048,1.7873,-9.3275,-0.3527,-0.1100,-0.0675,9.9842,-9.7917,165.9444,839.48,1000.00,1000.00,955.12,0.00,คุณ
513883,-0.0431,-7.2499,-6.5059,-0.0867,0.0177,-0.0316,-48.1688,-0.4393,131.8278,0.00,2.90,0.00,0.00,0.00,-1.7466,1.6036,-9.4012,-0.3339,0.0593,-0.1232,9.7518,-10.0857,165.8990,839.48,1000.00,1000.00,949.77,0.00,คุณ
513949,-0.1125,-7.3301,-6.4083,-0.0068,-0.0168,-0.0116,-48.5015,-0.5507,131.4932,0.00,2.90,0.00,0.00,0.00,-2.0004,1.6485,-9.1803,-0.3166,-0.0588,-0.0946,9.8523,-11.0882,165.0829,830.73,1000.00,1000.00,949.77,0.00,คุณ
514015,-0.0239,-7.2206,-6.5322,-0.0464,-0.0027,-0.0260,-48.1838,-0.3458,131.8141,0.00,2.90,0.00,0.00,0.00,-2.0860,1.7221,-9.0779,-0.1696,0.0037,0.0923,10.1624,-11.8996,164.2535,830.73,1000.00,1000.00,949.77,0.00,คุณ
514081,-0.0928,-7.2026,-6.4807,0.0150,-0.0117,0.0143,-48.1007,-0.4470,131.8958,0.00,2.90,0.00,0.00,0.00,-1.9298,1.7592,-9.2084,-0.2765,0.2228,-0.0065,10.3771,-11.7655,164.2124,830.73,1000.00,1000.00,944.42,0.00,คุณ
514147,-0.0467,-7.4606,-6.4400,-0.0804,0.0266,-0.0012,-48.6536,-0.3586,131.3442,0.00,2.90,0.00,0.00,0.00,-1.8849,1.6964,-9.3263,-0.1673,0.1303,0.0718,10.2422,-11.5044,164.5025,830.73,1000.00,1000.00,939.07,0.00,คุณ
514213,-0.0437,-7.2319,-6.5023,0.0285,-0.0168,-0.0234,-48.3480,-0.3082,131.6504,0.00,2.90,0.00,0.00,0.00,-1.6808,1.6551,-9.4197,-0.1305,0.1036,0.0675,10.0276,-10.7320,165.2300,821.98,1000.00,1000.00,939.07,0.00,คุณ
514279,-0.0359,-7.2786,-6.4580,-0.0387,0.0213,-0.0198,-48.3832,-0.2599,131.6156,0.00,2.90,0.00,0.00,0.00,-1.9130,1.5736,-9.2605,-0.3876,0.1735,-0.0960,9.7393,-11.1204,165.1348,821.98,1000.00,989.38,933.71,0.00,คุณ
514345,-0.0377,-7.3014,-6.5047,-0.0748,-0.0292,0.0172,-48.3426,-0.2404,131.6564,0.00,2.90,0.00,0.00,0.00,-1.8526,1.6401,-9.2868,-0.0687,-0.0161,0.0628,9.7824,-11.1171,165.1082,821.98,1000.00,1000.00,933.71,0.00,คุณ
514411,-0.1000,-7.3337,-6.4388,-0.0604,0.0119,-0.0128,-48.5287,-0.4136,131.4683,0.00,2.90,0.00,0.00,0.00,-1.6293,2.0423,-9.2186,-0.1264,0.0139,-0.0052,11.0431,-10.4575,164.6994,821.98,1000.00,1000.00,933.71,0.00,คุณ
514477,-0.0724,-7.2882,-6.4759,-0.0150,-0.0075,-0.0016,-48.4521,-0.4196,131.5448,0.00,2.90,0.00,0.00,0.00,-1.6473,1.7460,-9.1593,-0.2872,0.0672,-0.0735,10.8361,-10.2396,165.0049,821.98,1000.00,1000.00,928.36,0.00,คุณ
514543,-0.0563,-7.2523,-6.5035,-0.0500,-0.0048,0.0202,-48.2836,-0.3753,131.7139,0.00,2.90,0.00,0.00,0.00,-1.1265,1.6437,-8.7966,-0.4894,-0.8210,-0.4641,10.6766,-8.7497,166.1303,813.23,1000.00,1000.00,917.66,0.00,คุณ
514609,-0.0455,-7.3265,-6.4610,-0.0597,0.0224,-0.0105,-48.4377,-0.3210,131.5605,0.00,2.90,0.00,0.00,0.00,-1.8753,1.3929,-8.1196,-0.7056,-0.4341,-0.4871,10.1167,-10.6926,165.1969,541.94,901.36,927.48,832.02,0.00,คุณ
514675,-0.1389,-7.3337,-6.5071,0.0169,0.0319,-0.0299,-48.4251,-0.5668,131.5692,0.00,7.32,0.00,0.00,0.00,-2.2746,2.0890,-8.4871,-0.5270,0.5374,0.1291,11.7688,-12.6648,162.5755,218.15,609.07,766.53,607.21,0.00,คุณ
514741,-0.0437,-7.2571,-6.4682,-0.0558,0.0041,-0.0104,-48.3575,-0.4127,131.6395,0.00,2.90,0.00,0.00,0.00,-2.0052,1.7347,-9.0941,-0.2023,0.5069,0.2181,11.1425,-12.4371,163.1804,183.15,375.24,630.35,457.34,0.00,คุณ
514807,-0.0868,-7.2858,-6.5071,-0.0920,0.0169,-0.0124,-48.2932,-0.4609,131.7031,0.00,2.90,0.00,0.00,0.00,-1.8945,1.9292,-8.8684,0.1707,0.6976,0.2628,11.5779,-12.1130,163.1200,165.65,291.72,531.31,318.18,0.00,คุณ
514873,-0.0970,-7.3110,-6.5184,-0.0877,0.0142,0.0098,-48.2849,-0.5142,131.7104,0.00,2.90,0.00,0.00,0.00,-1.2839,1.8735,-8.5877,-0.0661,1.3716,0.5206,11.8776,-10.2490,164.2127,113.14,258.32,395.13,179.01,0.00,คุณ
514939,-0.0545,-7.3235,-6.4269,-0.0916,0.0240,-0.0202,-48.5071,-0.4174,131.4898,0.00,2.90,0.00,0.00,0.00,-1.2660,1.2600,-8.6577,-0.7985,1.7584,0.4784,10.0598,-9.2584,166.2622,69.39,208.21,246.56,77.32,0.00,คุณ
515005,-0.0994,-7.3074,-6.5161,0.0123,0.0173,-0.0281,-48.3899,-0.4996,131.6057,0.00,2.90,0.00,0.00,0.00,-0.6321,1.2869,-8.7469,-0.3142,1.7781,0.6087,9.2174,-6.6860,168.5786,0.00,133.05,147.52,50.55,0.00,คุณ
515071,-0.0862,-7.1703,-6.6142,-0.0693,0.0399,-0.0248,-47.8494,-0.5029,132.1462,0.00,7.32,0.00,0.00,0.00,0.5938,1.6293,-9.3964,-1.1083,1.8047,1.0608,9.5670,-1.3770,170.3326,0.00,91.30,122.76,34.50,0.00,คุณ
515138,-0.0521,-7.2278,-6.5526,-0.0772,0.0260,-0.0327,-47.8269,-0.4044,132.1703,0.00,2.90,0.00,0.00,0.00,1.2528,2.2824,-10.4140,-1.1957,1.1735,0.9637,11.0545,2.9778,168.5416,0.00,66.24,98.00,23.79,0.00,คุณ
515204,-0.0030,-7.3074,-6.4580,-0.0589,0.0100,0.0063,-48.1791,-0.2111,131.8201,0.00,2.90,0.00,0.00,0.00,1.7682,2.7193,-10.4026,-1.5340,0.5239,0.0399,12.8521,6.3086,165.6351,0.00,49.54,85.62,23.79,0.00,คุณ
515270,-0.0694,-7.2768,-6.4939,0.0125,0.0450,-0.0255,-48.2158,-0.3095,131.7825,0.00,7.32,0.00,0.00,0.00,1.6485,2.9420,-11.2214,-0.0984,0.7029,0.5535,13.7492,7.2522,164.3883,0.00,41.19,73.24,18.44,0.00,คุณ
515336,-0.1335,-7.2816,-6.5101,-0.0151,-0.0155,0.0248,-48.2065,-0.5464,131.7883,0.00,2.90,0.00,0.00,0.00,1.2720,4.1056,-9.9991,-0.7090,0.1504,0.4080,17.9230,7.0028,160.6700,0.00,32.84,73.24,18.44,0.00,คุณ
515402,-0.0664,-7.2307,-6.5412,-0.1140,0.0015,0.0311,-48.0358,-0.4684,131.9603,0.00,11.75,0.00,0.00,0.00,1.5976,3.5932,-9.3599,-0.7611,0.6711,0.3629,19.2768,7.9926,159.0091,0.00,24.49,60.86,13.09,0.00,คุณ
515468,-0.0192,-7.2565,-6.5490,-0.0946,0.0548,-0.0219,-47.9850,-0.2902,132.0135,0.00,2.90,0.00,0.00,0.00,1.4037,5.4518,-10.1943,-0.4416,-0.3292,-0.0372,23.8113,7.4521,154.9096,0.00,24.49,60.86,13.09,0.00,คุณ
515534,-0.1215,-7.2894,-6.5747,-0.0470,0.0244,-0.0109,-47.9659,-0.5002,132.0297,0.00,2.90,0.00,0.00,0.00,1.8167,2.4398,-8.6081,-0.1708,0.4206,0.0937,20.0638,9.2953,157.7166,0.00,24.49,60.86,13.09,0.00,คุณ
515600,-0.0192,-7.1487,-6.5927,-0.0871,0.0172,0.0155,-47.6430,-0.3072,132.3553,0.00,7.32,0.00,0.00,0.00,1.6682,4.1391,-9.3257,-0.8624,-0.3509,0.0453,21.8560,9.2950,156.0585,0.00,24.49,48.48,13.09,0.00,คุณ
515666,-0.1065,-7.3636,-6.4305,-0.0852,0.0601,-0.0190,-48.2555,-0.4660,131.7407,0.00,2.90,0.00,0.00,0.00,1.6556,3.6154,-9.2533,-0.1666,-0.1720,0.0785,21.4490,9.3781,156.4008,0.00,24.49,48.48,13.09,0.00,คุณ
515732,-0.0257,-7.1128,-6.6711,-0.0750,0.0657,-0.0330,-47.5462,-0.3088,132.4521,0.00,2.90,0.00,0.00,0.00,1.5138,3.6202,-9.3593,-0.5031,-0.1061,0.1136,21.1743,8.9781,156.8291,0.00,16.13,48.48,13.09,0.00,คุณ
515798,-0.1065,-7.2373,-6.6441,-0.1406,0.0830,-0.0962,-47.4948,-0.4656,132.5014,0.00,2.90,0.00,0.00,0.00,1.5060,3.4298,-9.2054,-0.1061,0.0695,0.0339,20.6864,8.8486,157.3382,0.00,24.49,60.86,13.09,0.00,คุณ
515864,0.2538,-7.6934,-6.6531,0.0902,0.0075,-0.0525,-48.3354,0.5001,131.6602,0.00,2.90,0.00,0.00,0.00,1.4779,3.8015,-9.1743,-0.2296,0.0082,0.0678,21.4678,8.6574,156.6888,0.00,24.49,60.86,13.09,0.00,break_time
515930,0.1071,-7.0715,-6.6974,-0.1386,-0.0384,0.0513,-47.4549,0.5645,132.5395,0.00,2.90,0.00,0.00,0.00,1.5371,3.5471,-9.2222,-0.4072,-0.0147,-0.0094,21.1229,8.7499,156.9732,0.00,24.49,60.86,18.44,0.00,break_time
515996,-0.0389,-7.0566,-6.5783,0.2011,0.0344,-0.0068,-47.2356,0.1710,132.7639,0.00,2.90,0.00,0.00,0.00,1.4647,3.4454,-9.1755,-0.2949,0.0359,-0.0100,20.7361,8.6256,157.3861,0.00,24.49,48.48,13.09,0.00,break_time
516062,0.0006,-7.1038,-6.6639,-0.0890,-0.0120,-0.0451,-47.0331,0.0873,132.9667,0.00,2.90,0.00,0.00,0.00,1.3863,3.6962,-9.1923,-0.2987,0.0297,-0.0149,21.2107,8.2951,157.0764,0.00,24.49,60.86,18.44,0.00,break_time
516128,0.0628,-7.0344,-6.7369,-0.0799,0.0048,-0.0203,-46.6350,0.2285,133.3641,0.00,2.90,0.00,0.00,0.00,1.3558,3.7285,-9.1647,-0.4118,0.0286,-0.0237,21.5668,8.0489,156.8369,0.00,24.49,60.86,18.44,0.00,break_time
516194,0.0257,-7.1523,-6.6675,-0.0363,-0.0324,0.0299,-46.8224,0.1896,133.1770,0.00,7.32,0.00,0.00,0.00,1.3887,3.4155,-9.2414,-0.2373,0.0977,-0.0324,20.8229,8.0367,157.5433,0.00,24.49,60.86,13.09,0.00,break_time
516260,0.0221,-7.1003,-6.6890,-0.0128,-0.0083,0.0243,-46.7652,0.1598,133.2343,0.00,7.32,0.00,0.00,0.00,1.2630,3.4310,-9.2791,-0.2922,0.2045,-0.0339,20.4728,7.6560,158.0204,0.00,24.49,60.86,13.09,0.00,break_time
516326,0.0910,-7.1278,-6.6717,0.0277,-0.0176,0.0026,-46.8282,0.3469,133.1697,0.00,7.32,0.00,0.00,0.00,1.2384,3.5819,-9.3036,-0.3911,0.4033,-0.0889,20.6816,7.3676,157.9303,0.00,16.13,60.86,13.09,0.00,break_time
516392,-0.0407,-7.1559,-6.6136,-0.0109,-0.0050,-0.0014,-47.0421,0.0540,132.9578,0.00,2.90,0.00,0.00,0.00,1.5587,4.2427,-8.8523,-0.4345,0.3569,-0.0588,22.9704,8.1990,155.4494,0.00,24.49,60.86,13.09,0.00,break_time
516458,0.0239,-7.0584,-6.6896,-0.0399,0.0188,-0.0016,-46.7895,0.0975,133.2103,0.00,2.90,0.00,0.00,0.00,1.6353,3.7327,-9.0869,-0.2604,0.4177,-0.0920,22.4929,8.8251,155.6578,0.00,16.13,60.86,18.44,0.00,break_time
516524,0.0072,-7.2619,-6.6196,-0.0660,0.0083,-0.0207,-47.2212,0.0696,132.7787,0.00,7.32,0.00,0.00,0.00,1.8328,3.7345,-9.0330,-0.1149,0.3404,-0.0481,22.2776,9.7220,155.4804,0.00,16.13,48.48,13.09,0.00,break_time
516590,0.0491,-7.1086,-6.6687,-0.0353,-0.0010,-0.0101,-47.0252,0.1789,132.9743,0.00,2.90,0.00,0.00,0.00,1.7496,3.6381,-9.0648,-0.0798,0.4474,0.0007,21.8935,9.9386,155.7393,0.00,16.13,48.48,13.09,0.00,break_time
516656,0.1478,-7.0763,-6.6693,-0.0279,-0.0086,-0.0055,-46.8586,0.5243,133.1366,0.00,7.32,0.00,0.00,0.00,2.3985,4.1804,-8.6518,-0.1688,0.2885,0.0620,23.4463,11.9791,153.3352,0.00,16.13,48.48,13.09,0.00,break_time
516722,0.0503,-7.1523,-6.6334,-0.0897,-0.0029,-0.0015,-47.0070,0.4097,132.9900,0.00,7.32,0.00,0.00,0.00,1.7885,4.3175,-8.7769,-0.3396,0.0080,0.1231,24.5944,11.1713,152.6724,0.00,24.49,48.48,13.09,0.00,break_time
516788,0.0168,-7.1308,-6.6759,-0.0255,-0.0188,0.0127,-46.9472,0.2539,133.0517,0.00,2.90,0.00,0.00,0.00,1.8484,3.5657,-9.3084,-0.0698,-0.0027,0.1059,22.5730,10.8416,154.6931,0.00,16.13,48.48,13.09,0.00,break_time
516854,-0.0329,-7.1044,-6.7375,-0.0065,0.0007,-0.0195,-46.7328,0.0302,133.2672,0.00,7.32,0.00,0.00,0.00,1.6856,3.2401,-9.4095,-0.3018,0.1171,0.1192,20.6436,10.2314,156.7483,0.00,16.13,48.48,13.09,0.00,break_time
516920,0.0227,-7.0488,-6.6807,-0.0397,-0.0290,0.0053,-46.6346,0.0821,133.3653,0.00,7.32,0.00,0.00,0.00,1.9466,3.5094,-9.1408,-0.2288,0.0255,0.0160,20.6136,10.7360,156.5275,0.00,16.13,48.48,13.09,0.00,break_time
516986,-0.0257,-7.1679,-6.6507,-0.0293,-0.0209,0.0015,-46.8894,-0.0346,133.1106,0.00,7.32,0.00,0.00,0.00,1.9214,3.8410,-9.0283,-0.3595,0.0239,0.0428,21.6028,10.9097,155.5457,0.00,16.13,48.48,13.09,0.00,break_time
517052,-0.0413,-7.1865,-6.6501,0.0080,0.0185,-0.0031,-47.0547,-0.1383,132.9450,0.00,2.90,0.00,0.00,0.00,1.7400,3.6860,-9.0965,-0.2541,-0.0117,0.0401,21.6531,10.4823,155.7072,0.00,16.13,48.48,13.09,0.00,break_time
517118,-0.0126,-7.1452,-6.6639,0.0181,-0.0120,0.0065,-47.0253,-0.1060,132.9745,0.00,7.32,0.00,0.00,0.00,1.7209,3.5980,-9.1133,-0.1756,-0.0288,-0.0082,21.4292,10.2227,156.0351,0.00,16.13,48.48,13.09,0.00,break_time
517184,0.0102,-7.1643,-6.6334,-0.0117,0.0055,-0.0307,-47.1145,-0.0232,132.8855,0.00,2.90,0.00,0.00,0.00,1.7478,3.8608,-9.0594,-0.1506,0.1059,-0.0083,22.0691,10.1440,155.4835,0.00,7.78,48.48,13.09,0.00,break_time
517250,-0.0527,-7.0781,-6.6645,-0.0262,0.0158,-0.0018,-46.9194,-0.1665,133.0801,0.00,7.32,0.00,0.00,0.00,1.7616,3.9003,-9.0223,-0.2149,0.0594,-0.0075,22.5300,10.1527,155.0537,0.00,16.13,48.48,13.09,0.00,break_time
517316,-0.0521,-7.1661,-6.5885,-0.0233,-0.0202,-0.0001,-47.1615,-0.2365,132.8375,0.00,7.32,0.00,0.00,0.00,1.7532,3.8775,-9.0618,-0.2874,0.0735,0.0041,22.6591,10.1193,154.9493,0.00,16.13,48.48,13.09,0.00,break_time
517382,-0.0401,-7.1493,-6.6627,-0.0394,0.0166,-0.0263,-47.0893,-0.2358,132.9097,0.00,7.32,0.00,0.00,0.00,1.7700,3.8045,-9.0594,-0.2041,0.0686,-0.0023,22.5294,10.1654,155.0485,0.00,16.13,48.48,13.09,0.00,break_time
517448,-0.0365,-7.0524,-6.6639,0.0479,0.0192,0.0061,-46.8562,-0.2257,133.1429,0.00,7.32,0.00,0.00,0.00,1.7748,3.7321,-9.0821,-0.2897,0.1025,0.0113,22.2470,10.2055,155.2911,0.00,16.13,48.48,13.09,0.00,break_time
517514,-0.0018,-7.0763,-6.6819,0.0044,0.0018,0.0027,-46.7493,-0.1181,133.2504,0.00,7.32,0.00,0.00,0.00,1.8490,3.6513,-9.0456,-0.1033,0.1787,0.0331,21.9134,10.4686,155.4753,0.00,7.78,48.48,13.09,0.00,break_time
517580,-0.0467,-7.1422,-6.6627,-0.0589,0.0140,-0.0134,-46.8692,-0.1962,133.1302,0.00,7.32,0.00,0.00,0.00,1.7945,3.7650,-9.0474,-0.2297,0.0928,0.0056,22.0592,10.4229,155.3631,0.00,16.13,48.48,13.09,0.00,break_time
517646,-0.0060,-7.1344,-6.6657,-0.0233,0.0040,-0.0061,-46.9072,-0.1156,133.0925,0.00,7.32,0.00,0.00,0.00,1.8119,3.7225,-9.0139,-0.2098,0.1230,0.0294,22.0506,10.4738,155.3470,0.00,16.13,48.48,13.09,0.00,break_time
517712,-0.0168,-7.1236,-6.6316,-0.0154,-0.0065,-0.0063,-46.9778,-0.1071,133.0220,0.00,7.32,0.00,0.00,0.00,1.7305,3.7836,-9.0552,-0.1716,0.0954,-0.0100,22.1824,10.2367,155.3363,0.00,16.13,48.48,13.09,0.00,break_time
517778,-0.0239,-7.1775,-6.6447,-0.0498,0.0292,-0.0138,-47.0926,-0.1237,132.9071,0.00,2.90,0.00,0.00,0.00,1.8011,3.7764,-8.9947,-0.2249,0.1077,-0.0037,22.2789,10.3485,155.1957,0.00,16.13,48.48,13.09,0.00,break_time
517844,-0.0192,-7.1619,-6.6370,-0.0016,0.0207,0.0027,-47.1356,-0.1181,132.8642,0.00,2.90,0.00,0.00,0.00,1.8053,3.9380,-9.0259,-0.2020,0.1380,0.0008,22.7225,10.3688,154.7771,0.00,16.13,48.48,23.79,0.00,break_time
517910,-0.0024,-7.1475,-6.6418,-0.0387,-0.0147,0.0014,-47.1181,-0.0661,132.8818,0.00,7.32,0.00,0.00,0.00,1.8065,3.9380,-8.9750,-0.1865,0.1476,0.0680,22.9986,10.4062,154.5045,0.00,16.13,48.48,13.09,0.00,break_time
517976,-0.0186,-7.1446,-6.6489,0.0124,0.0149,-0.0045,-47.0879,-0.0875,132.9119,0.00,7.32,0.00,0.00,0.00,1.7203,3.8620,-9.0779,-0.2397,0.0976,0.0136,22.8413,10.1484,154.7671,0.00,16.13,48.48,13.09,0.00,break_time
518042,-0.0293,-7.1248,-6.6944,0.0316,0.0135,-0.0004,-46.9356,-0.1297,133.0641,0.00,7.32,0.00,0.00,0.00,1.7215,3.9350,-8.9492,-0.1482,0.0860,0.0346,23.0969,10.0680,154.5657,0.00,16.13,48.48,13.09,0.00,break_time
518108,-0.0209,-7.1793,-6.5939,0.0551,-0.0239,0.0165,-47.1844,-0.1264,132.8154,0.00,7.32,0.00,0.00,0.00,1.7418,3.8440,-9.0259,-0.1910,0.0718,0.0026,22.8951,10.0681,154.7532,0.00,16.13,48.48,18.44,0.00,break_time
518174,-0.1018,-7.1924,-6.5370,0.1239,-0.0699,0.0982,-47.4571,-0.3627,132.5406,0.00,7.32,0.00,0.00,0.00,1.7137,4.0601,-9.0103,-0.3971,0.1820,0.0480,23.3881,9.9527,154.3450,0.00,7.78,36.10,7.73,0.00,break_time
518240,-0.2622,-7.4965,-6.4167,0.1017,-0.0203,0.1397,-48.4458,-0.9464,131.5384,0.00,7.32,0.00,0.00,0.00,1.8945,3.7955,-9.0983,-0.0530,0.3896,0.1877,22.8013,10.4169,154.6821,0.00,16.13,48.48,18.44,0.00,break_time
518306,0.0820,-7.2415,-6.6896,-0.5756,0.3596,-0.0573,-47.8594,-0.2329,132.1397,0.00,7.32,0.00,0.00,0.00,1.9136,3.5004,-8.9941,-0.1336,-0.0703,-0.0303,21.8299,10.8139,155.3859,0.00,16.13,48.48,18.44,0.00,break_time
518372,0.2759,-6.8040,-6.5436,0.4431,-0.0479,0.0405,-47.0017,0.7017,132.9897,0.00,7.32,0.00,0.00,0.00,1.5862,3.8051,-9.1222,-0.3585,0.0158,-0.1471,22.0888,9.9620,155.5482,0.00,16.13,48.48,13.09,0.00,break_time
518438,-0.6225,-7.8790,-6.2407,-0.0768,-0.1437,-0.0725,-49.3393,-1.4694,130.6225,0.00,2.90,0.00,0.00,0.00,2.1309,3.8165,-8.8930,-0.1823,0.2184,-0.0121,22.3757,11.1868,154.7059,0.00,16.13,48.48,13.09,0.00,break_time
518504,0.2059,-7.0464,-6.7471,-0.3174,0.2226,-0.2140,-47.8082,-0.1356,132.1915,0.00,7.32,0.00,0.00,0.00,1.7005,3.8530,-8.9977,-0.2408,-0.0414,0.0101,22.5994,10.5215,154.8200,0.00,16.13,48.48,13.09,0.00,break_time
518570,0.1329,-7.0488,-6.6633,0.1879,-0.0149,0.0413,-47.2112,0.3225,132.7870,0.00,2.90,0.00,0.00,4.10,1.8340,3.7129,-9.0779,-0.1478,0.0035,-0.0600,22.2220,10.5569,155.1505,0.00,16.13,48.48,18.44,0.00,break_time
518636,-0.1999,-7.5588,-6.3407,0.0037,-0.0642,0.0042,-48.6171,-0.4240,131.3797,0.00,7.32,0.00,0.00,0.00,1.7532,3.9464,-9.0510,-0.2778,0.1032,-0.0185,22.6998,10.3121,154.8240,0.00,16.13,48.48,13.09,0.00,break_time
518702,-0.0365,-7.0135,-6.7513,-0.1449,-0.0094,-0.0158,-47.3585,-0.3199,132.6398,0.00,7.32,0.00,0.00,0.00,1.8538,3.9913,-9.0079,-0.1673,0.0924,0.0183,23.0809,10.4845,154.3925,0.00,16.13,48.48,18.44,0.00,break_time
518768,-0.0670,-7.2307,-6.5777,0.0202,0.0322,-0.0042,-47.5324,-0.3564,132.4654,0.00,7.32,0.00,0.00,0.00,1.7760,3.7764,-9.0606,-0.2003,0.0353,-0.0132,22.6637,10.3703,154.8306,0.00,16.13,73.24,18.44,0.00,break_time
518834,-0.0611,-7.2996,-6.5077,-0.1275,-0.0345,-0.0361,-47.9070,-0.3571,132.0907,0.00,7.32,0.00,0.00,0.00,1.7903,3.8901,-9.0061,-0.2552,0.0487,-0.0048,22.8118,10.3564,154.7002,0.00,16.13,48.48,18.44,0.00,break_time
518900,-0.0066,-7.1577,-6.6609,-0.0552,-0.0341,-0.0188,-47.4832,-0.1978,132.5161,0.00,2.90,0.00,0.00,0.00,1.7592,3.8925,-8.9917,-0.1985,0.1317,-0.0026,22.9147,10.2677,154.6452,0.00,16.13,48.48,18.44,0.00,break_time
518966,-0.0527,-7.2086,-6.7238,-0.0307,-0.0082,-0.0232,-47.2367,-0.2522,132.7622,0.00,7.32,0.00,0.00,0.00,1.8041,3.7878,-9.0785,-0.1797,0.0987,-0.0161,22.5845,10.3303,154.9222,0.00,16.13,48.48,18.44,0.00,break_time
519032,-0.0287,-7.2206,-6.6202,-0.1415,0.0438,-0.0337,-47.3600,-0.2102,132.6392,0.00,7.32,0.00,0.00,0.00,1.7843,3.7902,-9.0552,-0.2729,0.0350,-0.0249,22.4554,10.3163,155.0478,0.00,16.13,48.48,18.44,0.00,break_time
519098,0.0084,-7.1775,-6.6238,-0.0514,0.0297,-0.0288,-47.3289,-0.0808,132.6710,0.00,7.32,0.00,0.00,0.00,1.7472,3.9781,-9.0516,-0.2232,0.0988,-0.0234,22.8998,10.1688,154.7037,0.00,7.78,36.10,13.09,0.00,break_time
519164,0.0180,-7.1350,-6.6657,-0.0449,0.0174,-0.0450,-47.1385,0.0122,132.8615,0.00,7.32,0.00,0.00,0.00,1.7209,3.8327,-9.0863,-0.2016,0.0759,-0.0132,22.7055,10.0338,154.9446,0.00,16.13,48.48,18.44,0.00,break_time
519230,0.0227,-7.0751,-6.6860,-0.0237,-0.0056,0.0150,-46.8795,0.0729,133.1204,0.00,7.32,0.00,0.00,0.00,1.7215,3.8877,-9.0360,-0.1547,0.1138,0.0116,22.8082,9.9802,154.8731,0.00,16.13,48.48,18.44,0.00,break_time
519296,-0.0449,-7.1104,-6.6573,0.0000,-0.0087,-0.0040,-46.8822,-0.0955,133.1177,0.00,7.32,0.00,0.00,0.00,1.7604,3.8746,-9.0157,-0.1648,0.0885,0.0157,22.8389,10.0752,154.8023,0.00,16.13,48.48,18.44,0.00,break_time
519362,-0.0042,-7.1565,-6.6358,-0.0050,0.0020,0.0119,-47.0223,-0.0600,132.9776,0.00,2.90,0.00,0.00,0.00,1.7490,3.8536,-9.0636,-0.2363,0.0738,-0.0115,22.7490,10.0726,154.8869,0.00,16.13,48.48,18.44,0.00,break_time
519428,-0.0473,-7.2685,-6.5795,0.0345,0.0106,-0.0102,-47.4361,-0.1685,132.5634,0.00,7.32,0.00,0.00,0.00,1.7885,3.9374,-8.9732,-0.2249,0.0830,-0.0065,23.0160,10.2081,154.5782,0.00,16.13,48.48,18.44,0.00,break_time
519494,-0.0485,-7.1727,-6.6609,0.0145,0.0179,-0.0080,-47.2770,-0.2262,132.7221,0.00,7.32,0.00,4.11,0.00,1.7233,3.9111,-8.9989,-0.2161,0.1013,0.0085,23.0658,10.0848,154.5871,0.00,16.13,60.86,18.44,0.00,break_time
519560,-0.0156,-7.1685,-6.6076,-0.0123,0.0194,-0.0322,-47.3041,-0.1589,132.6954,0.00,2.90,0.00,0.00,0.00,1.7394,3.8775,-9.0193,-0.2612,0.0952,-0.0154,22.9762,10.0661,154.6788,0.00,7.78,36.10,13.09,0.00,break_time
519626,-0.0281,-7.1254,-6.6298,-0.0603,0.0196,-0.0254,-47.1839,-0.1623,132.8156,0.00,7.32,0.00,0.00,0.00,1.7598,3.8823,-8.9911,-0.2307,0.0830,0.0052,22.9706,10.1264,154.6570,0.00,16.13,48.48,18.44,0.00,break_time
519692,-0.0640,-7.1541,-6.6034,-0.0305,0.0067,-0.0128,-47.2375,-0.2695,132.7613,0.00,7.32,0.00,0.00,0.00,1.7478,3.9242,-9.0121,-0.2213,0.0932,-0.0143,23.0582,10.1045,154.5854,0.00,24.49,48.48,18.44,0.00,break_time
519758,-0.0060,-7.1805,-6.6166,-0.0308,0.0105,-0.0134,-47.2890,-0.1522,132.7106,0.00,7.32,0.00,0.00,0.00,1.7191,3.9374,-9.0127,-0.2266,0.0769,0.0020,23.1421,10.0095,154.5494,0.00,16.13,48.48,18.44,0.00,break_time
519824,-0.0263,-7.2092,-6.6064,-0.0694,0.0145,-0.0046,-47.3936,-0.1533,132.6060,0.00,2.90,0.00,0.00,0.00,1.7484,3.8255,-9.0474,-0.2611,0.0758,0.0042,22.8438,10.0512,154.8084,0.00,16.13,48.48,18.44,0.00,break_time
519890,0.0162,-7.1505,-6.6154,-0.0170,0.0248,-0.0057,-47.3101,-0.0293,132.6899,0.00,7.32,0.00,0.00,0.00,1.7460,3.8871,-9.0217,-0.1978,0.0858,-0.0005,22.8865,10.0649,154.7627,0.00,16.13,60.86,18.44,0.00,nothing
519956,-0.0054,-7.1493,-6.6088,-0.0318,0.0106,-0.0237,-47.2800,-0.0305,132.7200,0.00,7.32,0.00,0.00,0.00,1.7155,3.8943,-9.0456,-0.1928,0.0898,0.0130,22.9070,9.9731,154.7844,0.00,16.13,48.48,18.44,0.00,nothing
520022,0.0120,-7.1194,-6.6693,-0.0416,0.0008,0.0179,-47.0747,0.0199,132.9253,0.00,2.90,0.00,0.00,0.00,1.7514,3.8949,-9.0109,-0.2147,0.1025,0.0206,22.9493,10.0444,154.7134,0.00,16.13,48.48,18.44,0.00,nothing
520088,-0.0407,-7.2301,-6.6430,-0.0166,-0.0196,-0.0064,-47.2497,-0.1092,132.7501,0.00,7.32,0.00,0.00,0.00,1.7299,3.9159,-9.0324,-0.1977,0.1042,0.0188,23.0067,10.0052,154.6774,0.00,16.13,48.48,18.44,0.00,nothing
520154,-0.0150,-7.1637,-6.6070,0.0059,-0.0016,-0.0055,-47.2822,-0.0986,132.7176,0.00,7.32,0.00,0.00,0.00,1.7640,3.7812,-9.0025,-0.2108,0.0777,-0.0116,22.7045,10.1225,154.9057,0.00,7.78,36.10,13.09,0.00,nothing
520220,-0.0646,-7.1601,-6.6519,0.0000,0.0037,-0.0049,-47.1941,-0.2389,132.8049,0.00,7.32,0.00,0.00,0.00,1.7706,3.8470,-9.0432,-0.2135,0.1096,0.0064,22.6819,10.1679,154.9061,0.00,16.13,48.48,18.44,0.00,nothing
520286,-0.0072,-7.1882,-6.5999,-0.0165,0.0124,-0.0258,-47.3189,-0.1406,132.6808,0.00,7.32,0.00,0.00,0.00,1.8011,3.8087,-9.0552,-0.2406,0.1329,0.0177,22.5497,10.2788,154.9780,0.00,16.13,48.48,18.44,0.00,nothing
520352,-0.0317,-7.2523,-6.5268,-0.0029,-0.0135,0.0035,-47.6661,-0.1634,132.3335,0.00,7.32,0.00,0.00,0.00,1.7939,3.8817,-9.0151,-0.1824,0.1223,-0.0008,22.7221,10.3182,154.8006,0.00,16.13,48.48,18.44,0.00,nothing
520418,-0.0186,-7.1859,-6.5885,-0.0101,0.0093,-0.0195,-47.5747,-0.1363,132.4250,0.00,7.32,0.00,0.00,0.00,1.7825,3.8871,-9.0366,-0.1934,0.0960,0.0080,22.8015,10.2945,154.7380,0.00,16.13,48.48,18.44,0.00,nothing
520484,-0.0180,-7.2020,-6.6070,-0.0697,0.0053,-0.0015,-47.5208,-0.1207,132.4789,0.00,7.32,0.00,0.00,0.00,1.7478,4.0260,-9.0001,-0.2143,0.0698,0.0259,23.2550,10.1737,154.3715,0.00,16.13,48.48,18.44,0.00,nothing
520550,-0.0311,-7.1835,-6.5867,-0.0202,-0.0055,-0.0050,-47.5010,-0.1518,132.4986,0.00,7.32,0.00,0.00,0.00,1.7855,3.9015,-9.0163,-0.2037,0.0938,0.0185,23.1276,10.2373,154.4615,0.00,16.13,60.86,18.44,0.00,nothing
520616,0.0084,-7.1350,-6.6358,-0.0394,0.0168,-0.0075,-47.2888,-0.0513,132.7112,0.00,7.32,0.00,0.00,4.10,1.7802,3.9021,-8.9864,-0.1857,0.0759,0.0177,23.0995,10.2679,154.4738,0.00,16.13,48.48,18.44,0.00,nothing
520682,-0.0257,-7.1918,-6.6268,-0.0067,-0.0311,-0.0116,-47.3151,-0.1011,132.6847,0.00,2.90,0.00,0.00,0.00,1.7496,3.9913,-8.9714,-0.2154,0.1095,0.0288,23.3443,10.1856,154.2831,0.00,16.13,48.48,18.44,0.00,nothing
520748,-0.0144,-7.2032,-6.5873,-0.0566,0.0057,0.0015,-47.4362,-0.0927,132.5637,0.00,7.32,0.00,0.00,0.00,1.6934,3.9069,-9.0342,-0.2762,0.0919,0.0023,23.1862,9.9735,154.5242,0.00,16.13,48.48,18.44,0.00,nothing
520814,-0.0395,-7.2870,-6.5795,-0.0255,0.0290,-0.0275,-47.6790,-0.1618,132.3205,0.00,7.32,0.00,0.00,0.00,1.7281,3.7459,-9.0552,-0.1710,0.0858,-0.0071,22.6508,9.9877,155.0160,0.00,16.13,60.86,29.14,0.00,nothing
520880,-0.0209,-7.0685,-6.6579,-0.0612,0.0125,-0.0012,-47.1981,-0.1428,132.8015,0.00,2.90,0.00,0.00,0.00,1.7933,3.8632,-9.0283,-0.1695,0.0902,0.0008,22.7094,10.1686,154.8803,0.00,16.13,48.48,18.44,0.00,nothing
520946,-0.0299,-7.2379,-6.6016,-0.0616,0.0372,-0.0349,-47.4156,-0.1590,132.5839,0.00,2.90,0.00,0.00,0.00,1.7424,3.9584,-8.9349,-0.1511,0.1301,0.0022,23.1042,10.1395,154.5270,0.00,16.13,48.48,18.44,0.00,nothing
521012,0.0198,-7.2056,-6.4394,-0.0323,0.0311,-0.0214,-47.8126,-0.0217,132.1874,0.00,2.90,0.00,0.00,0.00,1.7843,3.9368,-8.9690,-0.2116,0.1027,0.0064,23.1981,10.2319,154.3984,0.00,16.13,48.48,18.44,0.00,nothing
521078,0.0479,-7.1356,-6.6801,-0.0477,0.0331,-0.0229,-47.3490,0.1299,132.6507,0.00,7.32,0.00,0.00,0.00,1.7460,3.8847,-9.0121,-0.2650,0.0755,0.0149,23.0677,10.1601,154.5517,0.00,16.13,60.86,18.44,0.00,nothing
521144,0.0359,-7.1386,-6.6567,-0.0404,0.0616,-0.0196,-47.1744,0.1704,132.8251,0.00,7.32,0.00,0.00,0.00,1.7676,3.7740,-9.0163,-0.2083,0.0718,0.0204,22.6997,10.2055,154.8726,0.00,16.13,60.86,18.44,0.00,nothing
521210,0.0814,-7.0757,-6.6052,-0.0727,0.0382,-0.0330,-47.0715,0.3255,132.9266,0.00,7.32,0.00,0.00,0.00,1.7718,3.7704,-9.0061,-0.1831,0.1194,-0.0049,22.5159,10.2455,155.0244,0.00,16.13,48.48,18.44,0.00,nothing
521276,0.0503,-7.2152,-6.5735,-0.0488,0.0196,-0.0259,-47.3682,0.3103,132.6301,0.00,7.32,0.00,0.00,0.00,1.7927,3.9578,-8.9864,-0.2466,0.0788,0.0192,22.9389,10.2965,154.6098,0.00,7.78,36.10,13.09,0.00,nothing
521342,0.0575,-7.2038,-6.5927,-0.0112,-0.0304,-0.0068,-47.4519,0.3238,132.5463,0.00,7.32,0.00,0.00,0.00,1.7448,3.8398,-9.0103,-0.2543,0.1032,0.0119,22.8215,10.1988,154.7628,0.00,16.13,48.48,18.44,0.00,nothing
521408,0.0198,-7.0619,-6.6938,-0.0683,-0.0183,-0.0221,-46.9930,0.2202,133.0062,0.00,7.32,0.00,0.00,0.00,1.7424,3.7524,-9.0576,-0.1934,0.0821,-0.0143,22.4796,10.1384,155.1068,0.00,16.13,48.48,18.44,0.00,nothing
521474,0.0868,-7.1206,-6.6555,-0.0973,0.0354,0.0135,-46.9623,0.3652,133.0354,0.00,7.32,0.00,0.00,0.00,1.7772,3.9003,-8.9828,-0.1400,0.1010,-0.0228,22.7754,10.2122,154.7995,0.00,16.13,60.86,18.44,0.00,nothing
521540,0.0401,-7.2044,-6.6005,-0.0371,0.0097,-0.0271,-47.2338,0.3001,132.7646,0.00,7.32,0.00,0.00,0.00,1.7843,4.0487,-8.9702,-0.2305,0.0768,-0.0079,23.3281,10.2449,154.2718,0.00,16.13,48.48,18.44,0.00,nothing
521606,0.0485,-7.1535,-6.7375,0.0337,0.0384,-0.0643,-46.9733,0.2914,133.0252,0.00,2.90,0.00,0.00,0.00,1.7101,3.9117,-9.0295,-0.2605,0.0586,-0.0042,23.1925,10.0518,154.4838,0.00,16.13,48.48,18.44,0.00,nothing
521672,0.4106,-7.9448,-6.7968,0.0372,0.0908,-0.0080,-48.2377,1.3030,131.7325,0.00,7.32,0.00,0.00,0.00,1.7945,3.8141,-8.9480,-0.2478,0.0814,-0.0029,22.9383,10.2515,154.6308,0.00,16.13,48.48,18.44,0.00,ขอบคุณ
521738,0.1478,-6.9303,-6.7884,-0.0511,0.0230,0.0462,-46.9404,1.0929,133.0387,0.00,7.32,0.00,0.00,0.00,1.8508,3.6800,-9.1228,-0.1562,0.2622,-0.0368,22.2519,10.4548,155.1709,0.00,16.13,73.24,18.44,0.00,ขอบคุณ
521804,-0.0952,-7.5163,-6.5394,-0.0504,0.1568,-0.0653,-47.9657,0.2707,132.0331,0.00,7.32,0.00,0.00,0.00,1.9621,4.5306,-8.8439,-0.8079,0.2916,-0.2198,24.4293,10.8232,152.9863,0.00,16.13,48.48,23.79,0.00,ขอบคุณ
521870,0.3591,-6.4777,-6.7752,0.7326,0.1132,-0.0849,-45.8889,1.2057,134.0857,0.00,2.90,0.00,0.00,0.00,2.2464,4.3462,-8.8948,-1.4046,-0.1580,-0.4367,24.8961,11.8099,152.0897,0.00,16.13,48.48,18.44,0.00,ขอบคุณ
521936,0.6925,-7.1272,-6.8686,1.2953,0.0908,0.3745,-45.9191,2.6235,133.9608,0.00,7.32,0.00,0.00,0.00,2.8983,4.4552,-9.1911,-2.4689,-0.8878,-0.8301,24.8688,13.8767,151.0450,0.00,16.13,48.48,18.44,0.00,ขอบคุณ
522003,1.2079,-7.1206,-5.9079,3.4634,0.0229,0.3959,-47.8500,4.9773,131.7162,0.00,2.90,0.00,0.00,0.00,1.4809,7.8976,-8.5817,-2.4063,-1.6107,-1.4158,34.1232,10.4562,143.8714,0.00,16.13,60.86,18.44,0.00,ขอบคุณ
522069,0.5285,-10.8844,-4.2762,1.9121,-1.0051,2.1739,-59.1849,3.7192,120.5404,0.00,2.90,0.00,0.00,0.00,1.0505,7.4600,-8.6943,-0.7957,-1.8663,-1.7584,37.3919,7.7896,141.5227,0.00,7.78,36.10,13.09,0.00,ขอบคุณ
522135,-0.8057,-11.2119,-3.8746,2.2977,-1.4948,3.7816,-65.5314,-0.3293,114.4661,0.00,2.90,0.00,0.00,0.00,-0.4890,6.5580,-8.5775,-1.3626,-2.6283,-2.4767,37.5544,2.6874,142.3153,0.00,16.13,48.48,18.44,0.00,ขอบคุณ
522201,-2.1956,-10.3559,-3.5615,2.8204,-0.6609,4.4671,-67.5213,-5.8588,111.6208,0.00,2.90,0.00,0.00,0.00,-1.3839,6.8704,-7.5791,-1.5495,-2.5830,-3.0593,39.7801,-2.3564,140.1214,0.00,16.13,48.48,18.44,0.00,ขอบคุณ
522267,-3.4322,-8.2669,-2.7020,2.8786,-0.1673,4.4671,-66.1604,-13.0404,109.5926,0.00,2.90,0.00,0.00,0.00,-2.9264,5.7607,-6.3431,-2.0148,-2.5797,-3.7095,40.1615,-9.9612,138.1072,0.00,16.13,48.48,18.44,0.00,ขอบคุณ
522333,-4.5120,-6.5364,-1.6928,1.9838,0.1918,4.4671,-61.7400,-22.2782,106.4781,0.00,2.90,0.00,0.00,0.00,-4.0356,4.6347,-5.4841,-1.6061,-1.5145,-3.8691,38.0207,-18.8434,135.9337,0.00,16.13,48.48,18.44,0.00,ขอบคุณ
522399,-5.4117,-5.5895,-1.4001,1.8399,0.5311,3.8387,-54.4044,-32.0931,103.7529,0.00,2.90,0.00,0.00,0.00,-5.5518,4.3492,-4.5462,-2.4146,-1.5416,-4.0877,35.4371,-29.8393,130.1786,0.00,16.13,48.48,18.44,0.00,ขอบคุณ
522465,-6.2012,-4.7640,-1.0589,2.4306,0.7715,2.8723,-46.2074,-41.7155,100.9580,0.00,2.90,0.00,0.00,0.00,-5.9073,2.4470,-4.4420,-2.5567,-0.6927,-3.8052,27.4430,-39.3705,128.3647,0.00,16.13,36.10,13.09,0.00,ขอบคุณ
522531,-7.1511,-5.0472,-0.7093,3.4247,0.8076,2.4025,-40.4858,-48.4798,97.6841,0.00,2.90,0.00,0.00,0.00,-6.4598,2.7253,-4.0601,-1.4193,-0.2909,-3.3882,23.6375,-46.1860,124.3606,0.00,7.78,36.10,7.73,0.00,ขอบคุณ
522597,-8.0322,-5.5296,-0.5914,2.7748,1.0410,1.7540,-37.2735,-52.1982,95.4163,0.00,0.00,0.00,0.00,0.00,-6.9662,2.3458,-4.5031,-1.7025,-0.1538,-2.4663,19.5808,-50.2652,122.9796,0.00,16.13,48.48,18.44,0.00,ขอบคุณ
522663,-8.1819,-3.9141,-1.5294,0.5078,0.5494,1.8547,-31.1846,-57.7087,97.5539,0.00,0.00,0.00,0.00,0.00,-7.2697,1.9076,-4.1559,-3.0595,-0.1654,-2.1481,16.1620,-54.1679,120.9975,0.00,24.49,48.48,18.44,0.00,ขอบคุณ
522729,-8.7403,-4.4396,-1.4779,0.5035,0.2807,1.5262,-28.7909,-59.8830,98.0928,0.00,0.00,0.00,0.00,0.00,-7.7581,1.0044,-4.7018,-0.8580,-0.0093,-1.6215,11.0380,-56.5424,121.1317,0.00,16.13,36.10,13.09,0.00,ขอบคุณ
522795,-8.9977,-3.8225,-1.1858,-0.3223,0.6082,1.1198,-25.7610,-63.0114,97.5035,0.00,0.00,0.00,0.00,0.00,-8.2124,0.6500,-4.7766,-0.5865,-0.0671,-0.9303,7.3228,-58.2853,120.6641,0.00,16.13,36.10,13.09,0.00,ขอบคุณ
522861,-9.0612,-2.9150,-0.9056,0.2285,0.6099,0.6904,-21.7791,-67.1782,96.4903,0.00,0.00,0.00,0.00,0.00,-7.9826,2.1321,-3.9159,-2.0374,0.1952,-0.5794,10.4184,-59.7534,118.0436,0.00,16.13,23.72,18.44,0.00,ขอบคุณ
522927,-8.7469,-1.9699,-0.6788,-0.0203,0.8552,-0.0736,-17.3658,-71.7430,95.4616,0.00,0.00,0.00,0.00,0.00,-8.1843,1.7005,-2.9641,-1.3931,0.7009,-0.2112,10.7621,-63.5615,113.8403,0.00,7.78,23.72,13.09,0.00,ขอบคุณ
522993,-8.9121,-2.4655,-0.6620,0.5050,1.5507,-1.0049,-16.3951,-72.8847,94.7784,0.00,0.00,0.00,0.00,0.00,-6.9913,2.2752,-3.0856,-0.1977,0.8589,0.0832,13.5008,-62.5991,113.3660,0.00,7.78,23.72,7.73,0.00,ขอบคุณ
523059,-8.7242,-4.7730,-2.2428,1.0557,0.5397,-0.4476,-22.5027,-65.5836,98.9850,0.00,0.00,0.00,0.00,0.00,-8.0131,3.1018,-4.5222,-0.3865,-0.1010,0.0863,16.2590,-58.8802,115.7486,0.00,0.00,23.72,7.73,0.00,ขอบคุณ
523125,-8.6901,-4.0068,-1.2396,0.2679,0.1054,0.3779,-23.5208,-64.9308,98.1843,0.00,0.00,0.00,0.00,0.00,-8.0873,1.8837,-5.0106,-0.3092,-0.0578,-0.2675,13.6558,-57.7957,118.5414,0.00,0.00,11.34,2.38,0.00,ขอบคุณ
523191,-8.9133,-4.8101,-2.4326,0.0304,-0.0251,-0.0192,-25.6219,-61.8132,100.9553,0.00,0.00,0.00,0.00,0.00,-8.4147,2.1088,-4.0194,0.1380,0.3051,-0.1294,13.2016,-59.7482,116.6836,0.00,0.00,0.00,2.38,0.00,ขอบคุณ
523257,-9.0342,-3.4508,-1.7484,-0.2987,0.0091,0.1271,-23.1140,-64.3013,100.6158,0.00,0.00,0.00,0.00,0.00,-7.9155,2.0154,-4.0835,0.1249,-0.0641,-0.1726,12.9798,-59.9159,116.6240,0.00,0.00,0.00,2.38,0.00,ขอบคุณ
523323,-8.6212,-3.3592,-1.5521,-0.4144,0.2059,0.1189,-22.0779,-65.5019,100.0861,0.00,0.00,0.00,0.00,0.00,-7.8060,1.6850,-3.8883,0.0455,-0.0401,-0.1051,11.9812,-60.7010,116.3053,0.00,0.00,0.00,2.38,0.00,ขอบคุณ
523389,-8.4620,-3.9655,-1.9627,-0.3061,0.3682,-0.0663,-23.3052,-63.9579,100.9721,0.00,0.00,0.00,0.00,0.00,-8.1460,1.6826,-4.3019,0.2439,0.1239,-0.0639,11.1541,-60.5836,116.8368,0.00,0.00,0.00,2.38,0.00,ขอบคุณ
523455,-8.3716,-3.6770,-1.4414,-0.7495,0.1939,-0.2994,-23.3583,-64.3594,99.9831,0.00,0.00,0.00,0.00,0.00,-7.9742,2.1130,-3.9901,0.2221,0.1670,0.0977,12.2394,-60.5533,116.3309,0.00,0.00,0.00,2.38,0.00,ขอบคุณ
523521,-8.3674,-4.4252,-2.3165,-1.3191,0.0784,0.1151,-25.2313,-61.7332,101.9065,0.00,0.00,0.00,0.00,0.00,-7.9389,1.9627,-4.1361,0.8973,0.1287,-0.1490,12.3031,-60.2915,116.5796,0.00,0.00,0.00,2.38,0.00,ขอบคุณ
523587,-8.2118,-3.8740,-3.0814,-2.3735,0.0089,0.1502,-24.5752,-60.4753,105.3292,0.00,0.00,0.00,0.00,0.00,-7.5671,1.5299,-4.7784,1.4309,0.3160,0.0556,11.0194,-58.4408,119.1585,0.00,0.00,0.00,0.00,0.00,ขอบคุณ
523653,-8.1561,-3.2933,-3.1766,-1.8603,-0.5456,-0.0226,-22.6342,-60.7138,107.5757,0.00,0.00,0.00,0.00,0.00,-7.6731,1.1822,-4.6605,1.6373,-0.0503,0.2596,9.2674,-58.2358,120.0785,0.00,0.00,0.00,2.38,0.00,ขอบคุณ
523719,-8.1035,-3.6513,-2.9342,-2.7793,-0.4270,-0.2474,-22.7972,-60.3441,107.9211,0.00,0.00,0.00,0.00,0.00,-7.6378,1.0050,-4.2678,3.0779,0.3182,0.3444,7.9314,-59.1940,119.5507,0.00,0.00,0.00,2.38,0.00,ขอบคุณ
523785,-8.6667,-3.6633,-2.7277,-3.3954,-0.4497,-0.4420,-22.3724,-61.2998,107.0267,0.00,0.00,0.00,0.00,0.00,-7.8892,0.9954,-4.3438,2.6400,0.1992,0.4330,7.1142,-59.8779,119.0992,0.00,0.00,0.00,2.38,0.00,ขอบคุณ
523851,-8.4608,-2.2680,-2.4284,-3.3788,-0.5369,-0.2795,-18.5222,-64.9024,106.3237,0.00,0.00,0.00,0.00,0.00,-7.8754,0.9182,-4.5731,2.0778,0.1977,0.4247,6.4302,-59.6265,119.5430,0.00,0.00,0.00,2.38,0.00,ขอบคุณ
523917,-8.2495,-2.6277,-2.8043,-2.5608,-0.5640,-0.3326,-17.6641,-64.9853,107.1275,0.00,0.00,0.00,0.00,0.00,-7.8251,0.6489,-4.4025,1.4653,-0.1817,0.4143,5.2865,-60.0169,119.4180,0.00,0.00,0.00,2.38,0.00,ขอบคุณ
523983,-8.5787,-2.9611,-2.4583,-2.0596,-0.6338,-0.2971,-18.0166,-65.4324,106.1319,0.00,0.00,0.00,0.00,0.00,-7.7826,0.4453,-4.4414,1.3945,-0.1194,0.4076,4.0703,-60.1128,119.5520,0.00,0.00,11.34,2.38,0.00,ขอบคุณ
524049,-8.4069,-2.2165,-2.7247,-1.4552,-0.6192,-0.2596,-16.0694,-66.4326,106.7693,0.00,0.00,0.00,0.00,0.00,-7.8138,0.5633,-4.4588,0.6076,-0.2908,0.5591,3.8263,-60.1043,119.5996,0.00,0.00,11.34,2.38,0.00,ขอบคุณ
524115,-8.7098,-2.6277,-2.9593,-1.4980,-0.5240,-0.5450,-16.0057,-65.9937,107.4063,0.00,0.00,0.00,0.00,0.00,-7.8431,-0.2556,-4.2259,1.5765,-0.3013,0.4069,1.1061,-60.9835,118.9913,0.00,0.00,11.34,2.38,0.00,ขอบคุณ
524181,-8.7643,-2.7067,-2.8947,-1.3612,-0.3990,-0.3438,-16.1770,-65.8292,107.4611,0.00,0.00,0.00,0.00,0.00,-7.9742,0.6357,-4.0021,0.5881,-0.2919,0.5410,2.5909,-62.0634,117.7949,0.00,0.00,0.00,0.00,0.00,ขอบคุณ
524247,-8.7529,-2.4476,-2.8953,-1.0317,-0.3453,-0.3035,-15.5212,-66.2114,107.5668,0.00,0.00,0.00,0.00,0.00,-8.1819,0.6225,-3.8422,0.7111,-0.2477,0.4238,3.2706,-63.3308,116.4360,0.00,0.00,11.34,2.38,0.00,ขอบคุณ
524313,-8.7822,-2.1453,-2.7037,-1.3255,-0.2762,-0.1981,-14.3370,-67.3807,107.1147,0.00,0.00,0.00,0.00,0.00,-8.0951,0.4064,-3.6477,0.0547,-0.2263,0.4308,2.9483,-64.4645,115.3401,0.00,0.00,11.34,2.38,0.00,ขอบคุณ
524379,-8.6990,-2.3051,-2.5882,-0.5587,-0.2747,-0.3116,-14.2947,-67.8280,106.5832,0.00,0.00,0.00,0.00,0.00,-8.2142,0.2724,-3.3293,0.3817,-0.1185,0.3185,2.3576,-66.1642,113.7044,0.00,0.00,11.34,2.38,0.00,ขอบคุณ
524445,-8.8223,-2.3877,-2.1914,-0.7067,-0.1993,-0.1644,-14.5110,-68.8594,105.0348,0.00,0.00,0.00,0.00,0.00,-8.2112,-0.1969,-3.2048,-0.1022,0.0410,0.2937,0.5476,-67.4654,112.5272,0.00,0.00,11.34,2.38,0.00,ขอบคุณ
524511,-8.7894,-1.7933,-2.6720,-0.2856,0.0138,-0.3872,-12.7835,-69.4479,105.8161,0.00,0.00,0.00,0.00,0.00,-8.1567,0.2879,-3.7596,-0.0645,0.1370,0.3389,1.1969,-66.3262,113.6398,0.00,0.00,11.34,2.38,0.00,ขอบคุณ
524577,-8.9923,-2.4667,-2.9528,-0.3750,0.0905,-0.3874,-13.7166,-68.1147,106.7146,0.00,0.00,0.00,0.00,0.00,-8.4800,0.6931,-4.0631,-0.0833,0.1757,0.1269,2.7489,-65.2075,114.6189,0.00,0.00,11.34,2.38,0.00,ขอบคุณ
524643,-8.9397,-3.4113,-3.1359,0.0589,0.0506,-0.1003,-16.8387,-65.3397,107.4750,0.00,0.00,0.00,0.00,0.00,-8.3644,0.5010,-3.9727,-0.1888,0.1532,-0.0360,2.9240,-64.8112,114.9947,0.00,0.00,11.34,2.38,0.00,ขอบคุณ
524709,-8.7870,-2.4913,-2.9827,-0.0026,-0.0115,0.1363,-15.9427,-65.7503,107.7793,0.00,0.00,0.00,0.00,0.00,-8.1514,0.1856,-3.8141,-0.5959,0.1063,-0.0731,2.0631,-64.8685,115.0348,0.00,0.00,11.34,2.38,0.00,ขอบคุณ
524775,-8.5686,-2.6954,-2.7792,-0.0733,0.0217,0.1144,-16.2949,-65.7220,107.4906,0.00,0.00,0.00,0.00,0.00,-8.1154,-0.0221,-3.7369,-0.4592,0.2119,-0.0397,0.9712,-65.0924,114.8860,0.00,0.00,11.34,2.38,0.00,ขอบคุณ
524841,-8.6919,-2.3075,-2.8241,0.3565,0.0866,-0.0589,-15.2398,-66.4864,107.4656,0.00,0.00,0.00,0.00,0.00,-8.2166,0.2466,-3.7345,-0.4500,0.2628,0.1035,1.2684,-65.3036,114.6594,0.00,0.00,11.34,2.38,0.00,ขอบคุณ
524907,-8.6625,-2.2039,-3.0461,0.1051,0.1960,-0.1820,-14.3711,-66.5345,108.1423,0.00,0.00,0.00,0.00,0.00,-8.1436,-0.0192,-3.7979,-0.4856,0.2883,0.2224,0.5746,-65.1596,114.8328,0.00,0.00,11.34,2.38,0.00,ขอบคุณ
524973,-8.7110,-3.1305,-3.1617,0.1186,0.2140,-0.1144,-16.5546,-64.7412,108.5202,0.00,0.00,0.00,0.00,0.00,-8.0951,1.0858,-4.3666,-0.5277,0.2926,0.0239,3.6988,-63.1555,116.5474,0.00,0.00,11.34,2.38,0.00,ขอบคุณ
525039,-8.4830,-2.8073,-3.4125,-0.0224,-0.0027,0.1596,-16.8145,-63.6212,109.7084,0.00,0.00,0.00,0.00,0.00,-7.8179,0.6022,-4.3654,-0.2556,0.2372,-0.0439,3.7734,-61.8836,117.8168,0.00,0.00,0.00,0.00,0.00,ขอบคุณ
525105,-8.2507,-2.9025,-2.9929,-0.0342,-0.0590,0.0592,-17.5435,-63.4214,109.3082,0.00,0.00,0.00,0.00,0.00,-8.0448,0.6495,-4.3522,-0.1348,0.1496,0.0345,3.9185,-61.6010,118.0780,0.00,0.00,23.72,2.38,0.00,ขอบคุณ
525171,-8.5841,-2.2458,-2.8881,-0.0457,0.1541,-0.0746,-15.7448,-65.1777,108.6822,0.00,0.00,0.00,0.00,0.00,-7.9772,0.6219,-4.2014,-0.4605,0.1970,0.1140,3.9322,-61.7841,117.8913,0.00,0.00,11.34,2.38,0.00,ขอบคุณ
525237,-8.6326,-2.5757,-3.0467,0.0142,0.1241,-0.2969,-15.7294,-65.1869,108.6839,0.00,0.00,0.00,0.00,0.00,-7.9790,-0.1520,-3.8063,-0.4147,0.1710,0.1373,1.5054,-63.2133,116.7375,0.00,0.00,23.72,2.38,0.00,ขอบคุณ
525303,-8.6955,-1.8400,-2.8995,-0.1891,0.1351,-0.3975,-13.5510,-66.8588,108.3915,0.00,0.00,0.00,0.00,0.00,-7.8102,0.2813,-4.0092,-0.5277,0.3859,0.4771,1.6689,-62.9940,116.9459,0.00,0.00,23.72,7.73,0.00,ขอบคุณ
525369,-8.4506,-2.4960,-2.7983,0.3468,0.5277,-1.0874,-14.5993,-66.4894,108.0109,0.00,0.00,0.00,0.00,0.00,-7.8910,0.1682,-4.0434,-0.4649,0.7689,0.9351,1.3778,-62.9230,117.0361,0.00,0.00,0.00,0.00,0.00,ขอบคุณ
525435,-8.5416,-2.4093,-3.6070,0.2549,0.7314,-1.3667,-14.5919,-64.7843,110.0935,0.00,0.00,0.00,0.00,0.00,-8.2627,0.0479,-3.9278,-0.4810,1.1828,1.3800,0.8305,-63.7658,116.2190,0.00,0.00,11.34,2.38,0.00,ขอบคุณ
525501,-7.6743,-2.0292,-3.0515,-0.3366,0.6196,-1.9245,-14.2190,-64.6434,110.5366,0.00,2.90,0.00,0.00,0.00,-7.1990,0.5944,-3.8213,-1.1708,1.7469,2.0402,2.4199,-62.8526,117.0214,0.00,0.00,11.34,2.38,0.00,ขอบคุณ
525567,-6.7698,-3.9745,-3.2736,-0.6136,1.3413,-3.2809,-20.8709,-59.0810,111.7317,0.00,7.32,0.71,0.00,8.32,-6.7782,1.7879,-4.9753,-0.3538,2.2887,2.4524,7.2387,-57.6484,121.3367,0.00,0.00,23.72,7.73,0.00,ขอบคุณ
525633,-6.4592,-4.8831,-4.3055,-0.6143,1.9454,-3.4965,-26.7742,-51.7490,115.1314,0.00,11.75,0.71,0.00,8.32,-5.3321,3.3682,-5.7020,0.3058,2.6347,2.4679,15.4041,-48.5626,127.3120,0.00,0.00,23.72,7.73,0.00,ขอบคุณ
525699,-5.7020,-4.4594,-4.8592,-1.8299,3.0991,-4.4672,-28.8874,-46.3563,119.5321,0.00,11.75,0.71,0.00,8.32,-4.4618,3.3825,-6.5190,-0.0991,3.5335,3.1816,19.5352,-39.8179,133.7470,0.00,0.00,23.72,7.73,0.00,ขอบคุณ
525765,-2.8271,-7.5246,-5.9522,-1.9923,3.4866,-4.4672,-40.5098,-30.4041,124.5675,0.00,11.75,0.71,0.00,4.10,-3.0282,4.0128,-7.8167,0.4005,3.4293,3.3316,23.0818,-28.8747,141.5375,0.00,0.00,23.72,7.73,0.00,ขอบคุณ
525832,-0.2203,-7.7826,-7.0105,-1.0002,3.1011,-3.4925,-46.2918,-14.7081,129.9898,0.00,11.75,0.71,0.00,0.00,-0.8482,5.5212,-8.6583,0.1123,2.6662,2.4366,28.7629,-15.7774,146.4480,0.00,0.00,23.72,18.44,0.00,ขอบคุณ
525898,-0.0712,-7.7748,-8.1819,-0.9528,1.1353,-1.7510,-45.2727,-6.9005,133.9000,0.00,11.75,0.71,0.00,0.00,0.0210,5.0053,-8.8415,-0.5808,2.6551,2.7297,29.4652,-7.4667,149.4180,0.00,0.00,23.72,7.73,0.00,ขอบคุณ
525964,0.3154,-7.4594,-8.2723,-0.6237,0.9033,-0.6767,-43.7381,-2.4678,136.1555,0.00,11.75,0.71,0.00,0.00,0.3298,5.6050,-9.7316,0.4703,1.6967,1.7318,29.8171,-2.5386,150.0528,0.00,7.78,23.72,7.73,0.00,ขอบคุณ
526030,0.3609,-6.4813,-7.9778,-0.7739,-0.0147,-0.4012,-41.4830,-0.2703,138.5157,0.00,11.75,0.71,0.00,0.00,1.2396,4.6341,-9.2976,-0.1243,0.9715,0.6893,28.1494,2.1486,151.7539,0.00,0.00,23.72,7.73,0.00,ขอบคุณ
526096,0.4974,-6.6364,-7.3193,-0.2862,0.1584,0.2052,-41.8182,1.2618,138.1538,0.00,11.75,0.71,0.00,0.00,0.5878,7.2565,-10.9311,-0.6666,0.5468,0.7036,31.1594,2.3838,148.7288,0.00,7.78,23.72,7.73,0.00,ขอบคุณ
526162,-0.7273,-5.0861,-8.0759,-0.2050,0.0157,-0.2698,-37.1556,-1.4673,142.8054,0.00,11.75,0.71,0.00,0.00,-0.1772,2.4595,-8.1130,-0.3317,-0.1888,0.1006,25.1853,0.8895,154.7968,0.00,0.00,11.34,2.38,0.00,ขอบคุณ
526228,-0.5716,-6.2635,-7.7162,0.1084,-0.4523,-0.2060,-38.0851,-2.3859,141.8127,0.00,11.75,0.71,0.00,0.00,0.8434,5.6026,-8.9965,-0.1219,0.1919,0.1148,28.6064,2.7775,151.2339,0.00,7.78,23.72,7.73,0.00,ขอบคุณ
526294,-0.5746,-6.3072,-7.5701,0.0856,0.0112,-0.2877,-38.9031,-2.8616,140.9509,0.00,11.75,0.71,0.00,0.00,0.3879,4.3037,-8.7625,-0.2285,0.1426,0.2433,27.4047,2.5337,152.4585,0.00,0.00,23.72,7.73,0.00,ขอบคุณ
526360,-0.2382,-6.2419,-7.5456,-0.1084,-0.0165,-0.1748,-39.2460,-2.1307,140.6732,0.00,16.17,0.71,0.00,0.00,0.3256,4.3504,-8.7445,0.1547,-0.1939,0.0458,26.9266,2.2259,152.9665,0.00,0.00,23.72,7.73,0.00,ขอบคุณ
526426,0.1227,-6.7609,-7.4468,0.0615,-0.0393,-0.1531,-40.7705,-0.7002,139.2209,0.00,11.75,0.71,0.00,0.00,0.5351,4.2924,-8.9905,0.3071,-0.0307,0.0618,26.2023,2.6520,153.6432,0.00,7.78,23.72,7.73,0.00,ขอบคุณ
526492,-0.2328,-5.4500,-7.8688,0.2211,0.0436,-0.0807,-37.7904,-1.0418,142.1900,0.00,11.75,0.71,0.00,0.00,0.4172,4.2690,-8.8990,-0.1697,0.0713,0.1096,25.9039,2.5366,153.9536,0.00,0.00,11.34,2.38,0.00,ขอบคุณ
526558,-0.5471,-5.9360,-7.3804,0.2915,0.4746,-0.5201,-38.2645,-2.1588,141.6519,0.00,11.75,0.71,0.00,4.10,0.3208,4.2834,-8.9217,-0.0502,-0.1123,-0.0372,25.7682,2.1968,154.1244,0.00,7.78,23.72,7.73,0.00,break_time
526624,0.1251,-6.4502,-7.5372,-0.1170,0.0491,-0.0859,-39.4411,-0.6956,140.5503,0.00,11.75,4.86,0.00,0.00,0.2921,4.0547,-9.0007,0.0192,-0.0307,-0.0671,25.0054,1.9464,154.9084,0.00,7.78,23.72,7.73,0.00,break_time
526690,-0.3232,-6.0731,-7.6988,0.1221,-0.0369,0.0082,-38.8430,-1.2933,141.1271,0.00,11.75,4.86,0.00,0.00,0.1191,4.0637,-8.9666,-0.3198,0.1152,0.0598,24.6942,1.3212,155.2657,0.00,0.00,11.34,2.38,0.00,break_time
526756,-0.3807,-5.9438,-7.5258,0.5420,-0.0699,-0.1620,-38.5588,-1.7786,141.3846,0.00,11.75,4.86,0.00,0.00,0.1407,4.2511,-8.9289,-0.3813,0.3250,0.1663,25.0760,1.0678,154.8981,0.00,7.78,36.10,7.73,0.00,break_time
526822,-0.1131,-6.4885,-7.3349,0.1411,0.1690,-0.1192,-40.0356,-1.2177,139.9381,0.00,11.75,4.86,0.00,0.00,0.2400,3.8398,-8.9929,-0.3914,0.3873,0.1618,24.1001,1.2363,155.8642,0.00,7.78,23.72,7.73,0.00,break_time
526888,-0.2137,-6.6046,-7.4786,0.5919,0.0083,-0.1243,-40.7451,-1.2224,139.2285,0.00,11.75,4.86,0.00,0.00,0.4477,4.5701,-8.8852,-0.3227,0.7735,0.3894,25.6603,1.9075,154.2585,0.00,7.78,23.72,7.73,0.00,break_time
526954,0.0186,-6.6226,-7.2158,-0.2605,0.0361,-0.0631,-41.6457,-0.5592,138.3488,0.00,11.75,4.86,0.00,0.00,0.6902,3.9661,-9.0372,-0.2320,0.9122,0.2887,24.6521,2.9534,155.1479,0.00,7.78,23.72,7.73,0.00,break_time
527020,-0.0808,-6.2545,-7.4115,0.3018,0.0518,-0.1209,-40.9071,-0.5186,139.0881,0.00,11.75,4.86,0.00,0.00,1.3133,4.4953,-8.7601,-0.2361,0.7872,0.3099,25.8053,5.2806,153.5807,0.00,7.78,23.72,2.38,0.00,break_time
527086,-0.0844,-6.8866,-7.0715,-0.1764,0.0320,-0.0464,-42.5823,-0.5044,137.4132,0.00,11.75,4.86,0.00,0.00,1.4444,3.8159,-8.9941,-0.2597,0.3829,0.0098,24.2779,6.8448,154.6537,0.00,7.78,23.72,7.73,0.00,break_time
527152,0.0072,-6.3095,-7.3235,-0.0762,-0.0419,0.0027,-41.6718,-0.2330,138.3273,0.00,11.75,0.71,0.00,0.00,1.2247,4.4366,-8.8319,0.4038,0.5306,-0.0487,25.3702,6.9559,153.5606,0.00,0.00,23.72,7.73,0.00,break_time
527218,-0.0162,-6.5352,-7.3157,-0.0228,-0.0079,-0.0035,-41.7234,-0.1634,138.2761,0.00,11.75,4.86,0.00,0.00,1.8334,4.1014,-8.8313,-0.5010,0.2628,-0.1048,24.9250,8.8087,153.3595,0.00,0.00,23.72,7.73,0.00,break_time
527284,-0.0563,-6.6872,-7.1493,-0.0243,-0.0387,0.0315,-42.4055,-0.2465,137.5935,0.00,11.75,0.71,0.00,0.00,1.7502,4.2241,-8.8427,-0.1232,0.1132,0.0030,25.0185,9.4690,153.0134,0.00,0.00,11.34,2.38,0.00,break_time
527350,-0.0670,-6.4676,-7.2978,-0.0262,-0.0863,-0.0239,-41.9771,-0.3201,138.0211,0.00,11.75,0.71,0.00,0.00,1.5407,4.7024,-8.6943,-0.4534,-0.2360,0.1265,26.5340,9.1663,151.6874,0.00,0.00,11.34,2.38,0.00,break_time
527416,-0.0503,-6.4867,-7.2577,-0.0249,-0.1067,0.0312,-41.8831,-0.3080,138.1152,0.00,11.75,4.86,0.00,0.00,1.4623,3.3299,-9.2563,0.0697,-0.1521,0.0818,23.0525,8.8279,155.1292,0.00,0.00,0.00,2.38,0.00,break_time
527482,-0.1209,-6.6352,-7.2355,0.0506,0.0241,-0.0132,-42.2018,-0.5075,137.7937,0.00,11.75,4.86,0.00,0.00,1.5138,4.1535,-9.0073,-0.1277,0.0399,0.0830,23.7564,8.7529,154.4923,0.00,0.00,36.10,7.73,0.00,break_time
527549,-0.1951,-6.7722,-7.1224,-0.0191,-0.0224,0.0041,-42.8761,-0.8233,137.1120,0.00,11.75,4.86,0.00,0.00,1.4180,4.0122,-9.0480,-0.4278,0.0181,0.0862,23.7074,8.4528,154.6533,0.00,0.00,23.72,7.73,0.00,break_time
527615,-0.1353,-6.5975,-7.2463,0.0177,-0.0305,-0.0138,-42.5939,-0.8071,137.3947,0.00,11.75,4.86,0.00,0.00,1.4563,3.8566,-9.0450,-0.0934,0.0410,0.0440,23.2693,8.4390,155.0750,0.00,0.00,23.72,2.38,0.00,break_time
527681,-0.1484,-6.4807,-7.3074,0.0184,-0.0367,0.0245,-42.0795,-0.8389,137.9081,0.00,11.75,4.86,0.00,0.00,1.3534,4.0332,-9.0241,-0.3380,0.0083,0.0739,23.5577,8.1177,154.9200,0.00,0.00,23.72,7.73,0.00,break_time
527747,-0.1233,-6.5304,-7.2487,-0.0952,0.0329,-0.0022,-42.0457,-0.7816,137.9435,0.00,11.75,0.71,0.00,0.00,1.3989,3.8716,-9.0492,-0.2438,0.0551,0.0245,23.2389,8.1034,155.2292,0.00,0.00,11.34,2.38,0.00,break_time
527813,-0.1766,-6.7501,-7.1380,-0.0723,-0.0022,-0.0123,-42.7206,-0.9061,137.2650,0.00,11.75,4.86,0.00,0.00,1.4174,4.0290,-8.9510,-0.0893,0.0413,0.0045,23.6031,8.1601,154.8611,0.00,0.00,23.72,7.73,0.00,break_time
527879,-0.1610,-6.5514,-7.2152,0.0215,-0.0464,0.0052,-42.4771,-0.9263,137.5079,0.00,11.75,4.86,0.00,0.00,1.3911,4.0158,-8.9391,-0.2134,0.0100,0.0022,23.7695,8.1198,154.7170,0.00,0.00,23.72,18.44,0.00,break_time
527945,-0.2239,-6.6825,-7.2355,0.0367,-0.0191,-0.0218,-42.5946,-1.1149,137.3836,0.00,11.75,4.86,0.00,0.00,1.3546,3.9212,-8.9959,-0.1689,0.0218,-0.0037,23.5437,7.9895,154.9797,0.00,7.78,23.72,7.73,0.00,break_time
528011,-0.1706,-6.5442,-7.2511,-0.0658,-0.0188,0.0177,-42.3273,-1.0579,137.6531,0.00,11.75,0.71,0.00,0.00,1.4066,4.0290,-8.9480,-0.1738,0.0522,0.0041,23.7617,8.0735,154.7412,0.00,0.00,23.72,7.73,1.44,break_time
528077,-0.1425,-6.6489,-7.1882,-0.0230,-0.0093,-0.0004,-42.5449,-0.9457,137.4394,0.00,11.75,0.71,0.00,0.00,1.3522,4.1583,-8.9020,-0.1836,0.1031,0.0090,24.2753,7.9550,154.2917,0.00,7.78,23.72,7.73,0.00,break_time
528143,-0.2125,-6.5807,-7.2038,0.0064,-0.0183,-0.0102,-42.4725,-1.0964,137.5065,0.00,11.75,4.86,0.00,0.00,1.3516,4.1571,-8.9463,-0.2423,0.0893,-0.0033,24.4765,7.8781,154.1254,0.00,0.00,23.72,7.73,0.00,break_time
528209,-0.1778,-6.5292,-7.2212,-0.0476,0.0033,-0.0064,-42.2919,-1.0713,137.6880,0.00,11.75,0.71,0.00,0.00,1.3546,4.0960,-8.9965,-0.2349,0.0323,-0.0252,24.3570,7.8403,154.2532,0.00,7.78,23.72,7.73,0.00,break_time
528275,-0.1850,-6.6459,-7.2164,0.0071,-0.0162,0.0070,-42.4635,-1.0757,137.5162,0.00,11.75,0.71,0.00,0.00,1.3516,3.9901,-8.9343,-0.2209,0.0720,-0.0061,24.0922,7.8525,154.5031,0.00,0.00,23.72,7.73,0.00,break_time
528341,-0.1472,-6.6615,-7.1553,-0.0316,0.0143,-0.0038,-42.7053,-0.9694,137.2783,0.00,11.75,0.71,0.00,0.00,1.3139,4.3061,-8.8397,-0.1553,0.0968,0.0035,24.9096,7.7324,153.7585,0.00,7.78,23.72,7.73,0.00,break_time
528407,-0.1538,-6.5609,-7.1912,0.0225,-0.0376,0.0229,-42.5377,-0.9374,137.4469,0.00,11.75,4.86,0.00,0.00,1.3330,4.2199,-8.9115,-0.2534,0.0564,-0.0026,25.0024,7.7158,153.6747,0.00,0.00,23.72,7.73,0.00,break_time
528473,-0.1694,-6.5741,-7.2200,-0.0649,-0.0202,-0.0095,-42.4245,-0.9657,137.5591,0.00,11.75,0.71,0.00,0.00,1.3923,4.0152,-9.0073,-0.2172,0.0684,0.0041,24.3882,7.8765,154.2107,0.00,0.00,23.72,7.73,1.44,break_time
528539,-0.1712,-6.6783,-7.1212,-0.0552,-0.0337,-0.0158,-42.7889,-0.9852,137.1941,0.00,11.75,0.71,0.00,0.00,1.3312,3.9949,-8.9558,-0.1504,0.0874,-0.0123,24.0988,7.8039,154.5137,0.00,0.00,11.34,2.38,0.00,break_time
528605,-0.2161,-6.6591,-7.2002,0.0020,-0.0040,-0.0217,-42.7702,-1.1240,137.2077,0.00,11.75,0.71,0.00,0.00,1.2797,3.9194,-8.9427,-0.0652,0.0703,0.0334,23.7779,7.6363,154.8793,0.00,7.78,23.72,7.73,0.00,break_time
528671,-0.2089,-6.5903,-7.2230,0.0682,0.0041,-0.0294,-42.5680,-1.1740,137.4079,0.00,11.75,0.71,0.00,0.00,1.3163,3.9512,-9.0151,-0.1665,0.0718,0.0125,23.6114,7.6265,155.0424,0.00,7.78,23.72,7.73,0.00,break_time
528737,-0.1646,-6.5334,-7.2643,0.0491,0.0027,-0.0420,-42.2646,-1.0697,137.7154,0.00,11.75,0.71,0.00,0.00,1.2845,4.0445,-8.9630,-0.2177,0.0836,0.0050,23.8406,7.5345,154.8537,0.00,7.78,23.72,7.73,0.00,break_time
528803,-0.2191,-6.6094,-7.2230,-0.0723,-0.0269,-0.0037,-42.3560,-1.1758,137.6197,0.00,11.75,0.71,0.00,0.00,1.2965,4.0511,-9.0127,-0.2061,0.0785,-0.0292,23.9129,7.5047,154.7943,0.00,0.00,36.10,7.73,0.00,break_time
528869,-0.2047,-6.5418,-7.1769,0.0337,-0.0048,-0.0263,-42.3470,-1.1917,137.6281,0.00,11.75,0.71,0.00,0.00,1.3294,4.0972,-8.9953,-0.1249,0.1042,0.0025,24.0847,7.5826,154.6029,0.00,0.00,23.72,7.73,1.44,break_time
528935,-0.2358,-6.6070,-7.2128,-0.0204,-0.0057,-0.0108,-42.4112,-1.2866,137.5598,0.00,11.75,0.71,0.00,0.00,1.3246,4.0787,-8.9451,-0.1934,0.0513,0.0135,24.1811,7.6281,154.4948,0.00,0.00,23.72,7.73,0.00,break_time
529001,-0.1754,-6.5861,-7.1865,-0.0154,0.0292,-0.0226,-42.4534,-1.1588,137.5231,0.00,11.75,4.86,0.00,0.00,1.2630,4.0942,-8.9498,-0.1984,0.0834,0.0071,24.2752,7.4705,154.4569,0.00,0.00,23.72,7.73,0.00,break_time
529067,-0.1455,-6.6064,-7.2056,-0.0271,-0.0067,-0.0030,-42.4820,-1.0055,137.5003,0.00,11.75,0.71,0.00,0.00,1.2504,4.0811,-8.9750,-0.2198,0.0791,0.0135,24.2602,7.3492,154.5113,0.00,7.78,23.72,7.73,0.00,break_time
529133,-0.1610,-6.6531,-7.2104,-0.0570,0.0153,-0.0214,-42.5868,-0.9728,137.3967,0.00,11.75,4.86,0.00,0.00,1.3181,3.9536,-8.9606,-0.1640,0.1069,0.0266,23.9222,7.5067,154.7847,0.00,7.78,23.72,7.73,1.44,break_time
529199,-0.2167,-6.6304,-7.1440,-0.0458,0.0108,-0.0376,-42.7191,-1.1229,137.2588,0.00,11.75,4.86,0.00,0.00,1.3558,4.0146,-9.0205,-0.2164,0.0631,0.0100,23.8384,7.6631,154.8121,0.00,7.78,23.72,7.73,0.00,break_time
529265,-0.1832,-6.6621,-7.1894,0.0251,0.0134,-0.0101,-42.7649,-1.0967,137.2141,0.00,11.75,0.71,0.00,0.00,1.2977,4.0206,-9.0474,-0.2041,0.1114,-0.0188,23.7913,7.5650,154.8908,0.00,0.00,11.34,2.38,0.00,break_time
529331,-0.1808,-6.6693,-7.1302,-0.0882,0.0225,-0.0165,-42.9212,-1.0787,137.0584,0.00,20.60,0.71,0.00,0.00,1.2917,4.0553,-8.9822,-0.1648,0.0698,-0.0093,23.9351,7.5162,154.7690,0.00,0.00,23.72,7.73,1.44,break_time
529397,-0.1844,-6.6723,-7.1380,-0.0065,-0.0022,0.0064,-42.9902,-1.0798,136.9894,0.00,11.75,0.71,0.00,0.00,1.2911,4.0475,-9.0001,-0.1887,0.0877,-0.0022,23.9660,7.4850,154.7498,0.00,0.00,23.72,7.73,0.00,break_time
529463,-0.1802,-6.6795,-7.2020,-0.0412,-0.0005,-0.0003,-42.9125,-1.0653,137.0676,0.00,7.32,0.71,0.00,0.00,1.2905,4.0847,-8.9259,-0.2119,0.0907,-0.0029,24.1656,7.4874,154.5569,0.00,0.00,11.34,2.38,0.00,break_time
529529,-0.2071,-6.6178,-7.1655,-0.0305,0.0147,0.0104,-42.8128,-1.1407,137.1644,0.00,11.75,0.71,0.00,4.10,1.2869,4.0158,-8.9905,-0.2179,0.0939,-0.0044,24.0094,7.4668,154.7141,0.00,0.00,11.34,2.38,0.00,break_time
529595,-0.1951,-6.7124,-7.1434,-0.0717,0.0183,-0.0322,-43.0106,-1.1406,136.9667,0.00,11.75,0.71,0.00,0.00,1.2576,4.1373,-8.9205,-0.2480,0.0596,0.0060,24.3381,7.3777,154.4269,0.00,0.00,23.72,2.38,0.00,break_time
529661,-0.2059,-6.5609,-7.2715,0.0125,0.0190,-0.0063,-42.5292,-1.1725,137.4467,0.00,11.75,0.71,0.00,0.00,1.2959,4.0571,-8.9708,-0.2413,0.0713,0.0185,24.2260,7.4381,154.5152,0.00,7.78,23.72,7.73,0.00,break_time
529727,-0.1700,-6.5376,-7.1918,-0.0345,0.0074,-0.0339,-42.3971,-1.0876,137.5822,0.00,11.75,0.71,0.00,0.00,1.3079,4.0487,-8.9720,-0.1941,0.0808,0.0070,24.1444,7.5034,154.5720,0.00,16.13,23.72,7.73,0.00,break_time
529793,-0.1658,-6.5975,-7.3481,-0.0199,-0.0151,0.0089,-42.1530,-1.0244,137.8286,0.00,11.75,0.71,0.00,0.00,1.2546,4.0805,-8.9708,-0.1481,0.0995,0.0090,24.1975,7.3791,154.5620,0.00,0.00,23.72,7.73,0.00,break_time
529859,-0.2322,-6.6459,-7.2206,-0.0151,0.0025,-0.0356,-42.3829,-1.1900,137.5923,0.00,11.75,0.71,0.00,0.00,1.3019,4.0368,-8.9834,-0.1864,0.0877,-0.0048,24.0865,7.4547,154.6440,0.00,0.00,23.72,7.73,0.00,break_time
529925,-0.1401,-6.6160,-7.1691,0.0016,0.0065,-0.0191,-42.5397,-1.0069,137.4426,0.00,11.75,4.86,0.00,0.00,1.3354,4.0499,-8.9636,-0.2063,0.1012,0.0135,24.0829,7.5931,154.6010,0.00,7.78,23.72,7.73,6.09,break_time
529991,-0.2652,-6.6777,-7.1787,0.0145,0.0434,-0.0568,-42.7256,-1.2784,137.2458,0.00,11.75,4.86,0.00,0.00,1.2546,4.1619,-8.9403,-0.2124,0.0702,-0.0075,24.4167,7.4218,154.3367,0.00,7.78,23.72,7.73,0.00,break_time
530057,-0.1215,-6.5298,-7.2349,-0.0237,0.0040,0.0105,-42.3960,-0.9971,137.5865,0.00,11.75,0.71,0.00,0.00,1.3300,4.0583,-8.9786,-0.2709,0.0791,-0.0188,24.2535,7.5547,154.4498,0.00,0.00,23.72,7.73,0.00,break_time
530123,-0.1724,-6.7052,-7.1517,-0.0082,0.0101,0.0140,-42.7717,-1.0023,137.2108,0.00,11.75,0.71,0.00,0.00,1.2959,4.0098,-8.9995,-0.1442,0.1066,0.0040,24.0258,7.5240,154.6792,0.00,0.00,11.34,2.38,0.00,break_time
530189,-0.1706,-6.7016,-7.1284,0.0416,-0.0110,0.0034,-42.9979,-1.0006,136.9846,0.00,11.75,0.71,0.00,0.00,1.3187,4.0056,-8.9397,-0.1971,0.0943,-0.0010,23.9664,7.5951,154.7123,0.00,0.00,23.72,7.73,1.44,break_time
530255,-0.1341,-6.6220,-7.1122,-0.0286,0.0064,0.0085,-42.9745,-0.8959,137.0115,0.00,11.75,0.71,0.00,0.00,1.3336,4.2451,-8.9073,-0.1654,0.1125,0.0146,24.6026,7.6468,154.0829,0.00,7.78,23.72,7.73,0.00,break_time
530321,-0.1963,-6.6980,-7.1362,-0.0278,-0.0115,0.0155,-43.0751,-1.0228,136.9066,0.00,11.75,4.86,0.00,0.00,1.2917,4.0511,-8.9917,-0.2224,0.0901,0.0165,24.3187,7.5544,154.3872,0.00,7.78,23.72,7.73,1.44,break_time
530387,-0.1957,-6.6609,-7.1326,0.0337,-0.0143,-0.0134,-43.0530,-1.0859,136.9264,0.00,11.75,4.86,0.00,0.00,1.3288,4.1164,-8.9702,-0.1819,0.1006,0.0145,24.3670,7.6113,154.3216,0.00,7.78,23.72,7.73,0.00,break_time
530453,-0.2017,-6.6220,-7.1440,-0.0113,-0.0010,-0.0615,-42.9353,-1.1360,137.0422,0.00,11.75,0.71,0.00,4.10,1.3187,4.1098,-8.9415,-0.2722,0.0435,0.0067,24.4095,7.6217,154.2772,0.00,7.78,23.72,7.73,1.44,break_time
530519,-0.1957,-6.6962,-7.1009,-0.0458,0.0149,-0.0255,-43.1223,-1.1425,136.8548,0.00,11.75,4.86,0.00,4.10,1.3109,4.0254,-8.9953,-0.2564,0.0592,-0.0074,24.1471,7.5993,154.5372,0.00,0.00,23.72,7.73,1.44,break_time
530585,-0.1856,-6.7387,-7.1062,-0.0427,-0.0001,0.0037,-43.2963,-1.1139,136.6820,0.00,11.75,0.71,0.00,0.00,1.2929,4.0368,-8.9457,-0.1847,0.0609,-0.0104,24.1067,7.5522,154.5919,0.00,0.00,23.72,7.73,0.00,nothing
530651,-0.1604,-6.8255,-7.0829,0.0138,-0.0226,-0.0371,-43.6155,-1.0239,136.3662,0.00,11.75,0.71,0.00,4.10,1.2863,3.9799,-8.9971,-0.2061,0.0612,-0.0060,23.8777,7.5007,154.8295,0.00,7.78,23.72,7.73,1.44,nothing
530717,-0.2047,-6.6040,-7.0536,0.0904,0.0011,-0.0339,-43.3611,-1.1181,136.6171,0.00,11.75,4.86,0.00,4.10,1.2241,4.0864,-9.0055,-0.1842,0.0937,0.0136,24.0446,7.2779,154.7425,0.00,7.78,23.72,7.73,0.00,nothing
530783,-0.2047,-6.5460,-7.1434,-0.0843,0.0048,-0.0145,-42.9264,-1.1642,137.0499,0.00,11.75,0.71,0.00,4.10,1.2756,4.0673,-8.9522,-0.2083,0.0732,-0.0132,24.1311,7.3346,154.6406,0.00,7.78,23.72,7.73,0.00,nothing
530849,-0.3041,-6.7710,-7.0889,-0.0046,-0.0015,0.0098,-43.2958,-1.4719,136.6664,0.00,11.75,0.71,0.00,0.00,1.2253,4.0266,-8.9965,-0.2538,0.0611,-0.0142,24.0237,7.2104,154.7846,0.00,0.00,23.72,13.09,0.00,nothing
530915,-0.2011,-6.6813,-7.1380,-0.0352,-0.0090,-0.0185,-43.1959,-1.3250,136.7735,0.00,11.75,0.71,0.00,4.10,1.2372,4.0248,-9.0097,-0.1711,0.0926,-0.0093,23.9480,7.1784,154.8679,0.00,7.78,23.72,7.73,0.00,nothing
530981,-0.2011,-6.8153,-7.1206,0.0668,-0.0172,-0.0089,-43.4660,-1.2467,136.5068,0.00,11.75,0.71,0.00,4.10,1.2648,4.1134,-8.9552,-0.2484,0.1042,-0.0123,24.2024,7.2460,154.6006,0.00,0.00,23.72,7.73,0.00,nothing
531047,-0.1987,-6.6603,-7.1128,-0.0228,-0.0100,0.0008,-43.2872,-1.2076,136.6873,0.00,11.75,0.71,0.00,4.10,1.2468,4.0422,-8.9654,-0.1656,0.0733,-0.0239,24.1332,7.2358,154.6707,0.00,0.00,11.34,2.38,0.00,nothing
531113,-0.1826,-6.7890,-7.0428,-0.0132,-0.0256,0.0316,-43.6133,-1.1384,136.3641,0.00,11.75,0.71,0.00,4.10,1.2881,4.0900,-8.9780,-0.2581,0.0807,-0.0026,24.2031,7.3374,154.5703,0.00,7.78,23.72,2.38,0.00,nothing
531179,-0.1544,-6.7782,-7.0332,-0.0420,-0.0067,-0.0075,-43.7744,-1.0222,136.2074,0.00,7.32,0.71,0.00,4.10,1.2624,4.1110,-8.9726,-0.1999,0.1006,0.0214,24.3036,7.3132,154.4812,0.00,7.78,23.72,7.73,0.00,nothing
531245,-0.2251,-6.7525,-7.0518,0.0436,-0.0322,-0.0020,-43.7591,-1.1713,136.2170,0.00,11.75,0.71,0.00,4.10,1.2941,4.0990,-8.9618,-0.2912,0.0879,0.0110,24.3298,7.3972,154.4286,0.00,7.78,23.72,7.73,1.44,nothing
531311,-0.2005,-6.6118,-7.1511,-0.0582,0.0203,-0.0031,-43.2527,-1.1754,136.7232,0.00,7.32,0.71,0.00,4.10,1.2768,4.0428,-9.0043,-0.2288,0.0650,0.0057,24.1481,7.3839,154.6080,0.00,7.78,23.72,7.73,0.00,nothing
531377,-0.2304,-6.7267,-7.0829,0.0113,-0.0022,-0.0153,-43.3803,-1.2635,136.5918,0.00,11.75,9.02,0.00,4.10,1.2343,4.1098,-9.0085,-0.2348,0.0743,0.0022,24.2355,7.2444,154.5692,0.00,0.00,23.72,7.73,1.44,nothing
