timestamp_ms,ax_slav,ay_slav,az_slav,gx_slav,gy_slav,gz_slav,angle_x_slav,angle_y_slav,angle_z_slav,flex_slav_0,flex_slav_1,flex_slav_2,flex_slav_3,flex_slav_4,ax,ay,az,gx,gy,gz,angle_x,angle_y,angle_z,flex_0,flex_1,flex_2,flex_3,flex_4,Label
292358,-1.0415,-3.2125,-9.2054,-0.0057,-0.0817,0.0387,-18.9712,-5.4901,160.1914,81.15,103.40,106.14,127.34,94.86,-1.2295,3.9488,-8.6721,-0.2166,0.0530,0.0138,24.4823,-7.1828,154.3506,291.91,298.23,241.83,103.35,134.91,nothing
292424,-0.8793,-3.0551,-9.4000,-0.0607,-0.0196,-0.0045,-18.4495,-5.2863,160.7551,81.15,98.92,101.72,118.87,90.62,-1.2528,4.0457,-8.7218,-0.1982,0.0881,0.0050,24.5725,-7.3036,154.2247,272.15,278.87,214.99,97.74,134.91,nothing
292490,-0.9793,-3.0814,-9.2647,-0.0421,-0.0014,-0.0453,-18.3762,-5.5061,160.7596,75.79,89.96,97.30,127.34,94.86,-1.4216,3.9757,-8.5350,-0.3123,0.3295,0.0484,24.6264,-7.9395,153.9601,242.52,269.19,255.25,114.57,143.59,nothing
292556,-0.8284,-3.1946,-9.3323,-0.0401,0.0149,-0.0701,-18.6030,-5.1525,160.6457,75.79,94.44,106.14,127.34,94.86,-0.8703,4.2116,-8.8223,-0.2369,0.1411,0.0538,25.0310,-6.4978,154.0248,262.28,269.19,228.41,92.13,130.57,nothing
292622,-0.9236,-3.1563,-9.2892,-0.0293,-0.0176,0.0270,-18.6419,-5.2652,160.5755,86.52,98.92,101.72,127.34,90.62,-1.1540,4.1876,-8.7397,-0.1580,0.0240,0.0777,25.2205,-6.6448,153.7981,252.40,230.47,188.16,75.31,126.23,nothing
292688,-0.8937,-3.1599,-9.3234,-0.0262,0.0252,-0.0401,-18.6425,-5.2261,160.5863,81.15,94.44,101.72,127.34,99.09,-1.1086,4.1200,-8.6446,-0.1401,0.0480,0.0042,25.2607,-6.6242,153.7650,232.64,201.44,188.16,92.13,134.91,nothing
292754,-0.9727,-3.2838,-9.2809,0.0161,0.0045,0.0417,-19.0151,-5.4347,160.1656,70.43,89.96,106.14,131.58,94.86,-1.2325,4.0751,-8.6913,-0.1598,0.0248,0.0500,25.0819,-6.9701,153.8361,242.52,230.47,241.83,92.13,130.57,nothing
292820,-0.9009,-3.1557,-9.3575,0.0142,0.0256,0.1059,-18.7852,-5.3233,160.4202,81.15,98.92,101.72,127.34,94.86,-1.1588,4.0906,-8.6362,-0.1768,0.0466,0.0834,25.1148,-6.9423,153.8126,252.40,230.47,201.58,86.52,117.55,nothing
292886,-0.9607,-3.0743,-9.2773,0.0173,0.0033,0.0176,-18.5152,-5.4682,160.6374,81.15,94.44,101.72,123.11,90.62,-1.1959,4.0308,-8.6488,-0.2286,0.0637,0.0322,24.9482,-7.0430,153.9434,232.64,211.12,188.16,86.52,134.91,nothing
292952,-0.8871,-3.1874,-9.2048,-0.0151,-0.0145,-0.0055,-18.7656,-5.3363,160.4353,70.43,89.96,97.30,131.58,99.09,-1.1570,4.0457,-8.7487,-0.2134,0.0499,-0.0412,24.7880,-6.9436,154.1292,222.76,220.79,228.41,103.35,134.91,nothing
293018,-0.8859,-3.1784,-9.2940,-0.0335,0.0667,-0.0750,-18.7832,-5.2447,160.4450,81.15,112.36,106.14,127.34,94.86,-1.1654,4.1140,-8.7062,-0.1521,0.0687,-0.0123,24.9424,-6.9222,153.9860,252.40,240.15,214.99,86.52,126.23,nothing
293084,-0.7985,-3.1030,-9.3186,-0.0266,-0.0380,-0.1059,-18.5690,-4.9462,160.7365,81.15,98.92,101.72,123.11,90.62,-1.1942,4.1307,-8.7092,-0.0519,0.0468,-0.0080,25.0558,-6.9923,153.8547,252.40,220.79,188.16,80.91,126.23,nothing
293150,-0.9266,-3.1455,-9.2928,-0.0566,-0.0074,-0.0290,-18.5918,-5.1709,160.6512,75.79,85.48,97.30,123.11,99.09,-1.2061,4.0966,-8.6931,-0.2273,0.0443,0.0344,25.0391,-7.0729,153.8461,212.89,211.12,214.99,97.74,134.91,nothing
293216,-0.8949,-3.2179,-9.3138,0.0278,-0.1277,-0.0519,-18.7858,-5.1799,160.4610,75.79,98.92,106.14,131.58,111.78,-1.1965,4.0751,-8.6883,-0.2079,0.0762,-0.0350,24.9805,-7.0901,153.8976,242.52,240.15,228.41,92.13,126.23,nothing
293282,-0.9212,-3.1485,-9.2437,-0.0559,0.0574,-0.0365,-18.7546,-5.2842,160.4612,86.52,98.92,101.72,127.34,90.62,-1.2091,3.9757,-8.5907,-0.1689,0.0566,0.0394,24.8020,-7.1839,154.0410,242.52,230.47,201.58,86.52,121.89,nothing
293348,-0.8194,-3.0826,-9.3024,-0.0083,-0.0177,0.0050,-18.5117,-5.0321,160.7682,81.15,94.44,97.30,123.11,94.86,-1.0822,4.1146,-8.7338,-0.1686,0.0923,0.0421,24.9312,-6.7878,154.0373,222.76,201.44,201.58,92.13,134.91,nothing
293414,-0.9511,-3.2113,-9.3144,0.0027,0.0296,-0.0162,-18.7224,-5.2739,160.4953,70.43,89.96,106.14,131.58,99.09,-1.1115,4.2289,-8.7110,-0.1734,0.0380,0.0221,25.3242,-6.6677,153.6906,232.64,240.15,241.83,97.74,130.57,nothing
293480,-0.9864,-3.2018,-9.2156,-0.0140,-0.0094,0.0375,-18.8897,-5.5230,160.2601,81.15,103.40,106.14,127.34,90.62,-1.3402,3.9230,-8.6338,-0.1760,-0.0481,0.1350,24.7577,-7.3516,154.0304,252.40,240.15,214.99,86.52,117.55,nothing
293546,-0.7829,-3.1389,-9.4323,-0.0259,0.0364,-0.0435,-18.6177,-5.0097,160.6718,81.15,94.44,101.72,123.11,90.62,-1.2193,4.2756,-8.6775,-0.2586,0.0758,0.0652,25.3870,-7.2677,153.4483,203.01,230.47,201.58,86.52,134.91,nothing
293612,-0.9380,-3.1479,-9.1330,-0.0465,-0.0018,-0.0086,-18.7701,-5.2750,160.4489,70.43,89.96,101.72,127.34,94.86,-1.2259,4.0152,-8.6721,-0.0736,0.0458,0.0125,25.0091,-7.2888,153.8075,173.37,240.15,255.25,103.35,134.91,nothing
293678,-0.7871,-3.1874,-9.3251,-0.0342,-0.0153,0.0063,-18.7898,-4.9194,160.5298,75.79,98.92,106.14,131.58,94.86,-1.1181,4.1894,-8.6290,-0.1928,0.0863,-0.0810,25.3597,-6.9690,153.5668,183.25,259.51,241.83,92.13,126.23,nothing
293744,-0.7961,-3.1359,-9.3569,-0.0417,0.0035,-0.0079,-18.6276,-4.7654,160.7286,86.52,94.44,101.72,123.11,90.62,-1.1295,4.0451,-8.6410,-0.1810,0.0791,0.0386,25.1306,-6.8606,153.8219,163.49,240.15,214.99,86.52,126.23,nothing
293810,-0.9745,-3.0761,-9.1761,-0.0774,0.0007,-0.0164,-18.5331,-5.2539,160.6839,75.79,89.96,97.30,123.11,94.86,-1.2396,4.1571,-8.6727,-0.0994,0.0515,-0.0341,25.2583,-7.1034,153.6242,133.86,220.79,214.99,97.74,139.25,nothing
293876,-0.8739,-3.0886,-9.3192,-0.0589,-0.0134,0.0247,-18.3971,-5.1701,160.8396,70.43,94.44,106.14,131.58,94.86,-1.1965,4.2361,-8.6326,-0.1288,0.0275,0.0155,25.5909,-7.0984,153.3031,163.49,259.51,241.83,97.74,130.57,nothing
293942,-0.8619,-2.9037,-9.4101,-0.0376,0.0241,0.0390,-17.7373,-5.0862,161.5009,91.88,103.40,101.72,127.34,90.62,-1.2139,4.1631,-8.6877,-0.1204,0.0620,-0.0380,25.4894,-7.1402,153.3888,163.49,249.83,228.41,86.52,121.89,nothing
294008,-0.7548,-3.4226,-9.0785,-0.1918,-0.1067,-0.0559,-19.1556,-4.7708,160.2139,81.15,94.44,97.30,118.87,90.62,-1.2163,4.1702,-8.6907,-0.1234,0.0947,-0.0189,25.4537,-7.1659,153.4154,153.62,230.47,214.99,92.13,134.91,nothing
294074,-0.9320,-3.2257,-9.4143,-0.0886,0.0304,-0.0866,-18.9903,-5.0635,160.2958,70.43,94.44,106.14,127.34,94.86,-1.1864,4.1601,-8.6242,-0.2725,0.1227,-0.0458,25.4976,-7.1146,153.3886,153.62,259.51,255.25,97.74,130.57,nothing
294140,-0.8673,-3.0515,-9.3036,0.0015,0.0123,-0.0748,-18.5395,-5.0630,160.7325,81.15,103.40,106.14,144.29,90.62,-1.1840,4.0900,-8.6206,-0.2226,0.0759,0.0199,25.3369,-7.0941,153.5508,183.25,269.19,228.41,92.13,121.89,nothing
294206,-0.8727,-3.2700,-9.5442,-0.0273,-0.1142,-0.0968,-18.6914,-5.0027,160.6023,81.15,94.44,101.72,123.11,90.62,-1.1840,4.1158,-8.6368,-0.1663,0.0879,0.0339,25.3050,-7.0743,153.5878,163.49,240.15,201.58,86.52,130.57,nothing
294272,-0.8536,-3.1192,-9.3449,-0.0766,0.0087,-0.1541,-18.5398,-4.9774,160.7562,70.43,89.96,101.72,131.58,94.86,-1.1463,4.1864,-8.6649,-0.1260,0.0540,-0.0619,25.4495,-6.9332,153.4904,143.74,240.15,241.83,103.35,134.91,nothing
294338,-0.7991,-2.9994,-9.3024,-0.0690,0.1712,-0.1981,-18.1774,-4.8268,161.1490,70.43,98.92,110.56,131.58,94.86,-1.2408,4.1732,-8.6577,-0.1112,0.0394,0.0142,25.4790,-7.1451,153.3973,173.37,269.19,241.83,97.74,126.23,nothing
294404,-0.7327,-3.1395,-9.5251,-0.0070,-0.0432,-0.0555,-18.1852,-4.4995,161.2283,81.15,94.44,101.72,127.34,90.62,-1.2319,4.1295,-8.6751,-0.1033,0.0829,-0.0104,25.3566,-7.2257,153.4909,163.49,249.83,214.99,80.91,130.57,nothing
294470,-0.8308,-3.1132,-9.2964,-0.0795,0.2567,-0.1481,-18.3149,-4.6706,161.0576,75.79,89.96,97.30,123.11,94.86,-1.2007,4.0380,-8.6236,-0.1982,0.0804,0.0187,25.1196,-7.2065,153.7265,153.62,230.47,228.41,97.74,139.25,nothing
294536,-0.5118,-2.9719,-9.4790,-0.0649,0.2248,-0.1708,-17.8504,-3.8081,161.7210,70.43,89.96,101.72,127.34,94.86,-1.1977,4.2092,-8.6655,-0.0872,0.0810,0.0232,25.4084,-7.1467,153.4653,163.49,259.51,255.25,97.74,130.57,nothing
294602,-0.7398,-3.0551,-9.2216,0.0153,-0.0499,0.0506,-18.0611,-4.0791,161.4527,81.15,98.92,101.72,127.34,90.62,-1.2085,4.1559,-8.6093,-0.1885,0.0543,-0.0076,25.4788,-7.1757,153.3880,183.25,259.51,228.41,86.52,121.89,nothing
294669,-0.5022,-2.9384,-9.4939,-0.0356,0.0474,-0.0093,-17.6163,-3.4825,162.0205,75.79,94.44,97.30,123.11,90.62,-1.2510,4.2546,-8.6895,-0.1046,0.0390,0.0523,25.6687,-7.2722,153.1740,163.49,220.79,214.99,92.13,134.91,nothing
294735,-0.5794,-3.1120,-9.4449,-0.0147,-0.1016,0.0601,-17.9114,-3.4084,161.7454,70.43,89.96,97.30,127.34,99.09,-1.2402,4.1996,-8.6488,-0.1532,0.0564,0.0154,25.6700,-7.3113,153.1604,173.37,259.51,255.25,97.74,134.91,nothing
294801,-0.6572,-3.0880,-9.3144,-0.0266,0.0753,-0.0818,-18.1048,-3.6191,161.5122,75.79,98.92,101.72,127.34,94.86,-1.2851,4.1924,-8.6470,-0.2402,0.0791,0.0185,25.6457,-7.4642,153.1356,193.13,259.51,228.41,92.13,121.89,nothing
294867,-0.6596,-3.0126,-9.3724,0.0213,-0.0528,0.0215,-17.9415,-3.7261,161.6497,81.15,94.44,97.30,123.11,90.62,-1.2905,4.0918,-8.7080,-0.0999,0.1157,-0.0228,25.2875,-7.5520,153.4536,173.37,240.15,201.58,86.52,134.91,nothing
294933,-0.6040,-3.0479,-9.3587,-0.0548,0.0346,0.0027,-17.9729,-3.6188,161.6418,70.43,85.48,101.72,127.34,90.62,-1.1840,4.2325,-8.7254,-0.1140,0.0849,0.0275,25.4810,-7.2553,153.3612,153.62,240.15,241.83,103.35,134.91,nothing
294999,-0.6524,-2.9893,-9.4066,-0.0155,-0.0438,0.0852,-17.7812,-3.7005,161.8125,70.43,98.92,106.14,127.34,90.62,-1.1834,4.1445,-8.6955,-0.2665,0.0927,0.0142,25.3808,-7.1297,153.4972,183.25,269.19,241.83,92.13,126.23,nothing
295065,-0.7662,-3.0814,-9.4084,0.0176,0.0628,0.0044,-17.9308,-4.0638,161.5837,81.15,98.92,114.98,123.11,86.39,-1.1912,4.2271,-8.6883,-0.1471,0.0755,-0.0117,25.5581,-7.0789,153.3408,183.25,249.83,214.99,80.91,126.23,nothing
295131,-0.6746,-3.0383,-9.3742,0.0165,-0.0172,0.0390,-17.9229,-3.9901,161.6086,75.79,89.96,92.89,123.11,94.86,-1.2408,4.1726,-8.6619,-0.2080,0.0755,0.0237,25.5264,-7.2161,153.3294,173.37,230.47,228.41,97.74,139.25,nothing
295197,-0.7087,-3.0449,-9.3305,0.0165,0.0086,0.0397,-17.9739,-4.0599,161.5425,70.43,94.44,101.72,127.34,94.86,-1.2301,4.0817,-8.6703,-0.2581,0.0885,0.0120,25.2589,-7.2652,153.5732,183.25,269.19,241.83,97.74,130.57,nothing
295263,-0.6195,-3.0156,-9.4604,0.0176,0.0150,-0.0577,-17.8088,-3.8140,161.7604,81.15,98.92,101.72,123.11,90.62,-1.2606,4.0912,-8.6883,-0.0627,0.0354,0.0675,25.1225,-7.3717,153.6713,193.13,259.51,228.41,86.52,121.89,nothing
295329,-0.7530,-3.1078,-9.3527,0.0123,-0.0416,0.0339,-18.0672,-4.0913,161.4439,75.79,94.44,97.30,118.87,90.62,-1.2372,4.0685,-8.6907,-0.1675,0.1058,0.0503,24.9945,-7.3594,153.7990,173.37,230.47,214.99,97.74,134.91,nothing
295395,-0.6656,-3.0755,-9.4006,-0.0065,0.0116,0.0157,-18.0704,-3.9705,161.4688,65.07,85.48,97.30,131.58,94.86,-1.2349,4.0924,-8.6158,-0.1358,0.0596,0.0326,25.0881,-7.3680,153.7059,173.37,259.51,241.83,97.74,130.57,nothing
295461,-0.7638,-3.0324,-9.2880,-0.0070,-0.0251,0.0840,-18.0475,-4.2189,161.4326,75.79,98.92,106.14,127.34,90.62,-1.2055,4.1062,-8.6739,-0.1486,0.0618,0.0384,25.1048,-7.2638,153.7228,193.13,269.19,228.41,92.13,121.89,nothing
295527,-0.6542,-3.0282,-9.3844,0.0161,0.0204,0.0917,-17.9454,-4.0070,161.5827,75.79,98.92,101.72,123.11,90.62,-1.2833,4.0894,-8.6625,-0.1952,0.0806,0.0384,25.0685,-7.4472,153.6992,183.25,249.83,201.58,86.52,130.57,nothing
295593,-0.6339,-2.9964,-9.3078,0.0237,-0.0359,0.0065,-17.8761,-3.8586,161.6845,70.43,89.96,97.30,123.11,94.86,-1.1624,4.1248,-8.6404,-0.1907,0.1182,-0.0124,25.1943,-7.1850,153.6609,163.49,249.83,241.83,103.35,134.91,nothing
295659,-0.6560,-3.0767,-9.3922,0.0239,-0.0308,0.0240,-17.9867,-3.8280,161.5830,70.43,98.92,106.14,127.34,94.86,-1.1594,3.9637,-8.6589,-0.2029,0.1185,0.0695,24.8007,-7.0639,154.0799,193.13,288.55,241.83,97.74,126.23,nothing
295725,-0.8218,-3.1599,-9.2527,-0.0132,0.0270,-0.0147,-18.3862,-4.3150,161.0786,81.15,98.92,101.72,123.11,94.86,-1.0744,4.0853,-8.7122,-0.2352,0.0735,-0.0429,24.8793,-6.7165,154.1088,193.13,269.19,241.83,86.52,126.23,nothing
295791,-0.7165,-2.9970,-9.3826,-0.0567,0.0284,0.0529,-18.0258,-4.2377,161.4492,75.79,89.96,92.89,123.11,90.62,-1.1989,4.3019,-8.6398,-0.0544,0.0327,-0.0115,25.5686,-6.9000,153.3845,163.49,240.15,228.41,97.74,139.25,nothing
295857,-0.7309,-2.8791,-9.3563,-0.0383,-0.0072,0.0234,-17.5416,-4.2538,161.9172,65.07,89.96,101.72,127.34,94.86,-1.2522,4.0302,-8.6913,-0.1242,0.0575,0.0143,25.1119,-7.1733,153.7443,173.37,269.19,268.66,97.74,130.57,nothing
295923,-0.6632,-3.0515,-9.3521,-0.0637,-0.0271,-0.0673,-17.7856,-4.0552,161.7276,75.79,103.40,101.72,127.34,90.62,-1.1971,4.0894,-8.6691,-0.1977,0.0702,0.0320,25.0791,-7.1462,153.7845,183.25,269.19,228.41,86.52,121.89,nothing
295989,-0.6830,-3.2317,-9.3988,-0.0154,0.0018,-0.0267,-18.3605,-3.9930,161.1798,75.79,112.36,97.30,118.87,90.62,-1.1648,4.3187,-8.6476,-0.2082,0.1110,-0.0196,25.7082,-7.0087,153.2164,163.49,259.51,214.99,92.13,134.91,nothing
296055,-0.7015,-3.0587,-9.3617,-0.0001,0.0376,0.0457,-18.2036,-4.0336,161.3240,70.43,89.96,97.30,127.34,94.86,-1.1445,4.1756,-8.7290,-0.1588,0.1097,0.0333,25.5414,-6.8768,153.4179,163.49,269.19,255.25,103.35,134.91,nothing
296121,-0.7386,-2.9569,-9.3641,0.0063,0.0094,0.0007,-17.8396,-4.1674,161.6480,70.43,94.44,106.14,127.34,94.86,-1.1223,4.1744,-8.6350,-0.1737,0.1328,-0.0354,25.5772,-6.7758,153.4129,173.37,288.55,241.83,92.13,126.23,nothing
296187,-0.8009,-2.9348,-9.3784,0.0079,0.0063,-0.0244,-17.5787,-4.4133,161.8404,75.79,98.92,101.72,123.11,94.86,-1.1552,4.1601,-8.6649,-0.1426,0.0468,0.0010,25.5134,-6.8147,153.4635,163.49,269.19,201.58,80.91,126.23,nothing
296253,-0.7213,-2.9964,-9.3682,-0.0472,-0.0260,-0.0095,-17.6333,-4.3037,161.8153,70.43,89.96,97.30,123.11,94.86,-1.2037,4.0475,-8.6949,-0.2328,0.0976,0.0387,25.1347,-6.9842,153.7806,143.74,259.51,268.66,103.35,134.91,nothing
296319,-0.7704,-3.0569,-9.2378,-0.0292,-0.0094,-0.0612,-17.9406,-4.4147,161.4880,70.43,89.96,106.14,131.58,90.62,-1.1157,4.0721,-8.6925,-0.0545,0.0780,0.0179,25.0285,-6.8072,153.9370,163.49,288.55,255.25,97.74,130.57,nothing
296385,-0.7201,-3.1527,-9.3222,-0.0234,0.0462,-0.0031,-18.2880,-4.2996,161.1782,81.15,98.92,106.14,127.34,86.39,-1.1068,4.1200,-8.6805,-0.2005,0.1070,-0.0376,25.1201,-6.6889,153.8829,173.37,278.87,228.41,80.91,121.89,nothing
296451,-0.6351,-3.0886,-9.3341,-0.0108,0.0082,0.0374,-18.2792,-3.9975,161.2584,75.79,89.96,92.89,118.87,90.62,-0.9841,4.3660,-8.6937,-0.2083,0.0975,-0.0027,25.8247,-6.2304,153.3247,153.62,249.83,228.41,97.74,134.91,nothing
296517,-0.6578,-2.9522,-9.3299,0.0172,-0.0299,-0.0552,-17.8991,-3.9219,161.6477,65.07,89.96,101.72,131.58,94.86,-1.0696,4.1571,-8.6589,-0.2308,0.0663,0.0065,25.6511,-6.2922,153.4776,153.62,288.55,268.66,97.74,134.91,nothing
296583,-0.7021,-3.1156,-9.2587,-0.0067,0.0151,-0.0417,-18.2233,-4.0164,161.3087,75.79,98.92,106.14,123.11,90.62,-1.1654,4.2690,-8.7338,-0.1022,0.0716,-0.0023,25.7514,-6.5656,153.3037,173.37,288.55,241.83,92.13,121.89,nothing
296649,-0.6919,-3.0689,-9.3676,-0.0642,-0.0522,0.0259,-18.1579,-4.0158,161.3728,75.79,98.92,97.30,123.11,90.62,-1.0421,3.9596,-8.7254,-0.2480,0.1190,0.0165,25.0080,-6.3879,154.0785,153.62,269.19,214.99,92.13,134.91,nothing
296715,-0.6500,-3.0653,-9.3593,-0.0014,0.0818,0.0065,-18.1257,-3.8959,161.4316,70.43,85.48,101.72,127.34,94.86,-1.0768,4.0697,-8.6027,-0.1414,0.0637,0.0245,25.0765,-6.4215,154.0022,143.74,269.19,268.66,108.96,134.91,nothing
296781,-0.7332,-2.9761,-9.3407,0.0166,0.0128,0.0001,-17.8742,-4.0865,161.6336,70.43,98.92,106.14,127.34,94.86,-1.1636,4.0793,-8.7326,-0.1497,0.0822,0.0210,24.9610,-6.6536,154.0479,173.37,288.55,255.25,92.13,126.23,nothing
296847,-0.7925,-2.9875,-9.3850,-0.0159,-0.0153,-0.0273,-17.7364,-4.3440,161.7048,81.15,94.44,101.72,123.11,86.39,-1.1576,4.1367,-8.6913,-0.0957,0.0758,-0.0095,25.1097,-6.7559,153.8734,163.49,269.19,228.41,86.52,126.23,nothing
296913,-0.6878,-2.9833,-9.3383,-0.0130,0.0234,0.0376,-17.7044,-4.1788,161.7771,91.88,94.44,97.30,123.11,94.86,-1.1211,3.9817,-8.7158,-0.1266,0.1009,-0.0329,24.7432,-6.7148,154.2415,143.74,259.51,241.83,97.74,139.25,nothing
296979,-0.7045,-3.0443,-9.3832,0.0093,0.0485,-0.0517,-17.8165,-4.1318,161.6791,65.07,94.44,110.56,131.58,94.86,-1.1074,4.1409,-8.6913,-0.2218,0.1028,-0.0035,25.0203,-6.6381,153.9948,173.37,288.55,255.25,97.74,130.57,nothing
297045,-0.6949,-3.0521,-9.3934,-0.0068,0.0110,0.0615,-17.8855,-4.0782,161.6245,75.79,98.92,101.72,123.11,90.62,-1.0774,4.1373,-8.7356,-0.1644,0.0538,0.0117,25.0985,-6.4989,153.9588,173.37,278.87,241.83,86.52,121.89,nothing
297112,-0.7243,-2.9701,-9.3102,-0.0218,0.0154,0.0195,-17.7651,-4.1581,161.7229,70.43,94.44,97.30,135.81,94.86,-1.1115,4.1122,-8.7014,-0.1680,0.0813,-0.0570,25.1073,-6.5435,153.9375,153.62,249.83,241.83,97.74,139.25,nothing
297178,-0.6459,-3.0407,-9.3341,0.0023,0.0225,-0.0083,-17.8844,-3.9611,161.6530,59.71,89.96,101.72,127.34,94.86,-1.1068,3.9578,-8.6338,-0.3028,-0.0461,-0.0990,24.7812,-6.5948,154.2400,163.49,288.55,282.08,97.74,130.57,nothing
297244,-0.7338,-3.0210,-9.3880,-0.0496,0.0203,-0.0100,-17.8356,-4.1087,161.6660,75.79,98.92,101.72,127.34,90.62,-1.1714,4.1505,-8.7601,-0.2174,0.0695,-0.2196,24.9697,-6.7437,154.0130,203.01,278.87,241.83,86.52,121.89,nothing
297310,-0.6806,-3.0437,-9.3353,-0.0121,-0.0184,0.0057,-17.9245,-4.0369,161.5961,75.79,94.44,97.30,118.87,90.62,-1.1977,4.2499,-8.5745,-0.2868,0.1741,-0.3797,25.5561,-6.9386,153.3852,212.89,269.19,214.99,86.52,134.91,nothing
297376,-0.6716,-3.0659,-9.4413,0.0368,-0.0318,0.0376,-17.9363,-3.9533,161.6040,70.43,85.48,97.30,123.11,94.86,-1.2061,4.1463,-8.6272,-0.3480,0.1815,-0.2200,25.5049,-7.0601,153.3982,212.89,278.87,255.25,108.96,134.91,nothing
297442,-0.6943,-3.0126,-9.2994,0.0038,-0.0087,0.0368,-17.9200,-4.0079,161.6074,70.43,94.44,106.14,127.34,90.62,-1.1564,4.2139,-8.6176,-0.2052,0.1756,-0.2224,25.6810,-6.9671,153.2553,252.40,298.23,241.83,92.13,126.23,nothing
297508,-0.7476,-3.0443,-9.3533,-0.0035,-0.0093,0.0284,-17.9479,-4.1773,161.5399,81.15,98.92,101.72,123.11,86.39,-1.2959,3.9422,-8.6949,-0.0627,0.0843,-0.0653,24.9187,-7.3488,153.8758,252.40,278.87,214.99,80.91,126.23,nothing
297574,-0.6842,-3.0389,-9.3575,-0.0255,-0.0207,-0.0033,-17.9475,-4.0776,161.5642,70.43,89.96,92.89,118.87,90.62,-1.2223,4.1379,-8.6577,-0.0823,0.0626,-0.0010,25.1226,-7.3039,153.6929,232.64,269.19,241.83,97.74,139.25,nothing
297640,-0.7279,-3.1126,-9.4018,-0.0134,0.0275,-0.0337,-18.1077,-4.1407,161.3926,65.07,94.44,106.14,131.58,94.86,-1.0960,4.6665,-8.5548,-0.3412,0.0830,-0.0934,26.7822,-6.8599,152.2146,272.15,298.23,241.83,97.74,130.57,nothing
297706,-0.7362,-2.9935,-9.2886,0.0142,0.0007,-0.0263,-17.9598,-4.2271,161.5161,75.79,103.40,106.14,127.34,90.62,-1.2361,4.0954,-8.6326,-0.2758,0.1134,0.0106,25.9732,-7.1149,152.9268,272.15,288.55,228.41,80.91,121.89,nothing
297772,-0.6979,-3.0461,-9.3874,-0.0582,0.0361,-0.0207,-17.9457,-4.1358,161.5520,75.79,94.44,101.72,118.87,90.62,-1.1936,4.0888,-8.5763,-0.0545,0.0912,0.0049,25.6270,-7.1375,153.2560,242.52,259.51,228.41,92.13,134.91,nothing
297838,-0.7434,-3.0743,-9.3168,-0.0331,0.0014,-0.0166,-18.0763,-4.2345,161.4007,65.07,85.48,101.72,127.34,94.86,-1.2127,4.0859,-8.6763,-0.0349,-0.0266,0.1562,25.3148,-7.1724,153.5481,252.40,288.55,255.25,97.74,130.57,nothing
297904,-0.7267,-3.0192,-9.4185,0.0040,0.0215,0.0664,-17.8998,-4.2182,161.5769,70.43,94.44,106.14,127.34,90.62,-1.2588,3.7357,-8.8660,0.1058,-0.1798,0.8552,23.9756,-7.3157,154.7966,262.28,288.55,241.83,86.52,117.55,nothing
297970,-0.7781,-3.0030,-9.3820,0.0337,0.0086,-0.0635,-17.7960,-4.3673,161.6408,75.79,98.92,101.72,123.11,86.39,-1.2450,4.4833,-8.6398,-0.1167,-0.1351,0.4223,25.5921,-7.3052,153.2379,212.89,269.19,214.99,86.52,130.57,nothing
298036,-0.7195,-3.1676,-9.3246,0.0033,-0.0014,-0.0701,-18.2535,-4.2731,161.2183,70.43,89.96,110.56,123.11,94.86,-1.2672,4.0104,-8.6470,-0.1900,0.0544,-0.0297,25.1242,-7.4383,153.6483,173.37,278.87,255.25,103.35,134.91,nothing
298102,-0.7716,-3.0240,-9.3545,-0.0406,0.0074,-0.0203,-18.0557,-4.3802,161.3847,70.43,94.44,106.14,127.34,94.86,-1.2139,4.2558,-8.6404,-0.1734,0.0551,-0.0458,25.5635,-7.3108,153.2638,212.89,298.23,241.83,97.74,126.23,nothing
298168,-0.6848,-3.0276,-9.3587,-0.0181,-0.0101,-0.0149,-17.9690,-4.1814,161.5183,75.79,94.44,106.14,127.34,86.39,-1.2241,4.3983,-8.4985,-0.2952,0.1606,-0.2763,26.3419,-7.3009,152.5118,183.25,278.87,214.99,80.91,126.23,nothing
298234,-0.7404,-3.1156,-9.3611,-0.0435,0.0003,-0.0514,-18.1623,-4.2368,161.3162,70.43,89.96,97.30,123.11,90.62,-1.3061,4.1295,-8.6775,-0.1984,0.0718,0.0003,25.7708,-7.5209,152.9963,153.62,259.51,228.41,97.74,139.25,nothing
298300,-0.8386,-2.9917,-9.3287,0.0026,0.0165,-0.0354,-17.9389,-4.5639,161.4511,59.71,94.44,101.72,127.34,94.86,-1.1696,4.1283,-8.6338,-0.0324,0.0431,0.0454,25.5628,-7.2451,153.2851,173.37,298.23,268.66,97.74,130.57,nothing
298366,-0.7123,-3.0527,-9.4107,-0.0123,0.0249,-0.1070,-17.9317,-4.3403,161.5155,75.79,98.92,101.72,127.34,90.62,-1.2097,4.1146,-8.6194,-0.2384,0.0639,0.1100,25.4323,-7.2318,153.4156,193.13,278.87,228.41,86.52,121.89,nothing
298432,-0.7746,-3.0886,-9.3030,-0.0019,0.0248,-0.0331,-18.1190,-4.4289,161.3107,75.79,94.44,101.72,118.87,90.62,-1.1900,4.0996,-8.6500,-0.2533,0.1396,-0.0113,25.2918,-7.1590,153.5745,183.25,259.51,214.99,92.13,134.91,nothing
298498,-0.6686,-3.0970,-9.3665,0.0070,0.0093,0.0119,-18.1863,-4.1527,161.3129,70.43,89.96,97.30,127.34,94.86,-1.1786,4.2439,-8.6446,-0.1640,0.0939,0.0618,25.6167,-7.0681,153.2873,193.13,278.87,255.25,97.74,134.91,nothing
298564,-0.7650,-3.0204,-9.3269,-0.0221,0.0214,0.0739,-18.0373,-4.3069,161.4209,70.43,94.44,110.56,127.34,94.86,-1.1983,4.1092,-8.6787,-0.0329,0.0509,-0.0170,25.3723,-7.0909,153.5175,222.76,288.55,241.83,92.13,121.89,nothing
298630,-0.7769,-3.0072,-9.3329,0.0104,-0.0506,0.0079,-17.9199,-4.4186,161.5072,75.79,98.92,101.72,123.11,86.39,-1.2073,4.4187,-8.6021,-0.0765,0.0487,0.0781,26.1700,-7.1043,152.7387,203.01,269.19,201.58,86.52,130.57,nothing
298696,-0.7273,-3.0282,-9.2892,-0.0329,0.0374,-0.0023,-17.9617,-4.3380,161.4868,70.43,94.44,97.30,127.34,94.86,-1.2007,4.2810,-8.6829,-0.2008,0.0725,0.0102,26.1000,-7.0873,152.8119,173.37,269.19,255.25,103.35,134.91,nothing
298762,-0.6967,-3.0539,-9.3545,0.0089,0.0030,0.0076,-17.9977,-4.1937,161.4873,65.07,94.44,106.14,131.58,94.86,-1.1660,4.0637,-8.6679,-0.1641,0.0731,0.0585,25.5134,-7.0166,153.4032,203.01,298.23,255.25,97.74,126.23,nothing
298828,-0.8703,-3.0820,-9.3114,-0.0333,0.0255,-0.0040,-18.1195,-4.6323,161.2575,75.79,98.92,106.14,127.34,90.62,-1.1606,4.1182,-8.6823,-0.1742,0.0830,0.0042,25.3468,-6.9518,153.5846,193.13,278.87,228.41,80.91,126.23,nothing
298894,-0.7327,-3.0731,-9.3563,-0.0324,-0.0245,-0.0132,-18.1253,-4.4432,161.3009,75.79,94.44,97.30,118.87,90.62,-1.2271,4.2032,-8.6625,-0.2339,0.0716,0.0286,25.5039,-7.1075,153.3847,183.25,249.83,228.41,97.74,134.91,nothing
298960,-0.7877,-2.9982,-9.3311,-0.0207,0.0476,-0.0544,-17.9399,-4.5191,161.4618,65.07,107.88,101.72,131.58,94.86,-1.1828,4.1283,-8.7110,-0.1339,0.0065,0.0472,25.3295,-7.0513,153.5711,193.13,288.55,268.66,97.74,130.57,nothing
299026,-0.7835,-3.0395,-9.3000,-0.0314,-0.0247,-0.0346,-17.9895,-4.5488,161.4058,75.79,94.44,106.14,123.11,90.62,-1.1684,4.1541,-8.7194,-0.1310,0.1241,0.0038,25.3031,-6.9744,153.6202,203.01,278.87,241.83,86.52,117.55,nothing
299092,-0.7380,-3.0701,-9.4024,-0.0329,0.0035,-0.0048,-18.0105,-4.4075,161.4218,75.79,98.92,101.72,123.11,82.16,-1.2408,4.0900,-8.7176,-0.2014,0.0575,0.0397,25.1089,-7.1585,153.7519,183.25,249.83,214.99,86.52,134.91,nothing
299158,-0.7674,-3.0749,-9.2006,-0.0070,-0.0042,-0.0759,-18.2138,-4.4648,161.2093,70.43,85.48,101.72,127.34,90.62,-1.2061,4.1571,-8.6697,-0.0772,0.0619,0.0134,25.2563,-7.1543,153.6104,183.25,269.19,255.25,103.35,134.91,nothing
299224,-0.7027,-3.0677,-9.3323,-0.0173,0.0314,0.0080,-18.1812,-4.2778,161.2878,70.43,94.44,106.14,127.34,94.86,-1.1678,4.0906,-8.7086,-0.1356,0.0759,0.0305,25.1106,-7.0375,153.7877,212.89,288.55,241.83,92.13,126.23,nothing
299290,-0.7626,-3.0659,-9.2880,-0.0372,0.0068,-0.0143,-18.1957,-4.3679,161.2513,81.15,98.92,101.72,123.11,86.39,-1.1852,4.2690,-8.6206,-0.2402,0.1226,-0.0168,25.6213,-7.0308,153.2941,212.89,269.19,214.99,80.91,126.23,nothing
299356,-0.7608,-3.0312,-9.3784,-0.0656,-0.0509,0.0113,-18.0254,-4.3910,161.4115,70.43,89.96,92.89,123.11,94.86,-1.1768,4.1565,-8.6488,-0.2174,0.0822,0.0140,25.5427,-7.0113,153.3764,193.13,259.51,255.25,103.35,134.91,nothing
299422,-0.7542,-3.0820,-9.3605,-0.0012,0.0200,-0.0698,-18.0977,-4.3837,161.3429,65.07,89.96,101.72,131.58,94.86,-1.1463,4.1379,-8.6398,-0.1242,0.0592,-0.0423,25.4702,-6.9175,153.4750,222.76,288.55,255.25,97.74,134.91,nothing
299488,-0.7261,-3.0348,-9.2707,0.0119,0.0100,0.0525,-18.0860,-4.3205,161.3701,75.79,98.92,106.14,123.11,90.62,-1.1864,4.2205,-8.6326,-0.1305,0.1358,-0.0341,25.6570,-6.9780,153.2754,222.76,278.87,228.41,80.91,121.89,nothing
299554,-0.7422,-3.0545,-9.3491,0.0120,0.0300,0.0080,-18.0630,-4.3181,161.3931,75.79,94.44,97.30,123.11,90.62,-1.1361,4.0972,-8.6643,-0.1553,0.0866,-0.0389,25.3891,-6.8693,153.5682,203.01,249.83,228.41,97.74,134.91,nothing
299621,-0.7207,-3.1042,-9.3736,0.0149,0.0117,-0.0434,-18.1681,-4.2460,161.3083,65.07,89.96,101.72,127.34,94.86,-1.1528,4.2086,-8.6972,-0.1400,0.0568,0.0060,25.5085,-6.8367,153.4618,212.89,288.55,268.66,97.74,130.57,nothing
299687,-0.7386,-3.0826,-9.3922,0.0041,0.0504,0.0267,-18.1431,-4.2597,161.3293,70.43,98.92,110.56,131.58,90.62,-1.1774,4.1804,-8.6380,-0.2671,0.1042,0.0436,25.5636,-6.9156,153.3848,232.64,278.87,228.41,86.52,121.89,nothing
299753,-0.6949,-3.1718,-9.3802,0.0110,-0.0648,0.0333,-18.3895,-4.1370,161.1181,75.79,98.92,101.72,123.11,86.39,-1.1606,4.1236,-8.7326,-0.1680,0.0780,-0.0348,25.3232,-6.8843,153.6278,212.89,249.83,214.99,92.13,130.57,nothing
299819,-0.7237,-3.1383,-9.3467,-0.0464,0.0327,0.0210,-18.4491,-4.1674,161.0527,70.43,85.48,92.89,118.87,94.86,-1.1253,4.2307,-8.6751,-0.3167,0.0849,0.0119,25.5667,-6.7672,153.4256,212.89,278.87,255.25,97.74,130.57,nothing
299885,-0.6884,-2.9779,-9.3736,-0.0015,-0.0269,0.0593,-18.0154,-4.0857,161.4958,86.52,98.92,106.14,127.34,94.86,-1.1672,4.2181,-8.6877,-0.0980,0.0836,0.0333,25.6320,-6.8294,153.3438,242.52,288.55,241.83,92.13,121.89,nothing
299951,-0.7769,-3.0904,-9.3042,-0.0464,0.0320,0.0173,-18.1648,-4.3079,161.2963,75.79,94.44,101.72,123.11,86.39,-1.1852,4.0984,-8.6230,-0.2249,0.0815,0.0074,25.4241,-6.9522,153.5093,222.76,269.19,214.99,86.52,126.23,nothing
300017,-0.7638,-3.0539,-9.3323,-0.0151,-0.0378,0.0804,-18.1143,-4.3778,161.3282,70.43,89.96,97.30,123.11,90.62,-1.1630,4.1104,-8.6464,-0.2330,0.0942,0.0031,25.3258,-6.9394,153.6086,203.01,259.51,255.25,103.35,134.91,nothing
300083,-0.7273,-3.0192,-9.3641,-0.0091,0.0434,0.0019,-17.9672,-4.3026,161.4903,65.07,89.96,101.72,135.81,90.62,-1.1127,4.2038,-8.6643,-0.1603,0.0995,0.0087,25.5125,-6.7649,153.4790,232.64,298.23,255.25,97.74,126.23,nothing
300149,-0.7716,-3.1269,-9.2761,0.0079,0.0064,0.0309,-18.2676,-4.4045,161.1721,75.79,98.92,106.14,127.34,90.62,-1.1959,4.1451,-8.7302,-0.0832,0.0592,0.0078,25.3522,-6.9102,153.5918,242.52,278.87,228.41,80.91,121.89,nothing
300215,-0.6321,-3.0252,-9.3970,-0.0395,-0.0198,-0.0258,-18.0372,-4.0331,161.4868,75.79,94.44,97.30,118.87,90.62,-1.1086,4.2475,-8.6709,-0.1734,0.0753,0.0618,25.6339,-6.7299,153.3711,203.01,259.51,241.83,97.74,134.91,nothing
300281,-0.7171,-3.0336,-9.3521,0.0014,0.0033,-0.0376,-17.9799,-4.1023,161.5266,65.07,85.48,97.30,127.34,94.86,-1.1451,4.1319,-8.6978,-0.1825,0.0409,0.0277,25.4271,-6.7557,153.5648,212.89,278.87,268.66,97.74,130.57,nothing
300347,-0.7877,-3.1299,-9.3048,-0.0469,0.0045,0.0245,-18.2550,-4.3448,161.1993,70.43,98.92,106.14,127.34,90.62,-1.2097,4.0870,-8.6703,-0.1474,0.0654,-0.0135,25.2272,-6.9739,153.6940,232.64,278.87,241.83,97.74,117.55,nothing
300413,-0.7291,-3.0880,-9.2761,-0.0012,0.0157,-0.0476,-18.3073,-4.3049,161.1581,75.79,94.44,101.72,123.11,86.39,-1.1534,4.2032,-8.6829,-0.1485,0.0864,-0.0127,25.4312,-6.8961,153.5193,212.89,259.51,214.99,86.52,130.57,nothing
300479,-0.7183,-2.9833,-9.3443,0.0132,0.0150,0.0192,-17.9823,-4.2466,161.4894,70.43,89.96,97.30,123.11,90.62,-1.1451,4.1750,-8.7098,-0.0886,0.0457,0.0517,25.4255,-6.8284,153.5449,203.01,269.19,268.66,108.96,134.91,nothing
300545,-0.7075,-3.2269,-9.3365,-0.0364,0.0464,-0.0194,-18.5009,-4.1715,161.0011,65.07,94.44,106.14,131.58,94.86,-1.1750,4.2116,-8.6871,-0.2338,0.0935,0.0083,25.5434,-6.8839,153.4138,232.64,288.55,255.25,92.13,121.89,nothing
300611,-0.7159,-3.1599,-9.4963,0.0372,-0.0149,0.0158,-18.4278,-4.1311,161.0820,75.79,98.92,101.72,127.34,90.62,-1.1804,4.1212,-8.7080,-0.2020,0.1118,0.0164,25.3345,-6.9346,153.6017,222.76,269.19,228.41,86.52,126.23,nothing
300677,-0.7291,-3.0389,-9.3287,-0.0136,0.0214,-0.0214,-18.2113,-4.1901,161.2796,75.79,94.44,97.30,123.11,86.39,-1.1618,4.0966,-8.6757,-0.1847,0.0795,0.0395,25.2078,-6.9197,153.7292,203.01,259.51,241.83,103.35,139.25,nothing
300743,-0.7853,-3.0874,-9.3234,-0.0140,-0.0374,-0.0110,-18.2367,-4.3805,161.2082,65.07,94.44,101.72,127.34,94.86,-1.1678,4.1738,-8.6428,-0.2457,0.0721,0.0324,25.3911,-6.9285,153.5485,232.64,288.55,255.25,97.74,126.23,nothing
300809,-0.6387,-3.0940,-9.4257,-0.0271,0.0271,0.0030,-18.1854,-4.0309,161.3425,75.79,103.40,106.14,131.58,90.62,-1.1888,4.2552,-8.7164,-0.1250,0.1046,0.0279,25.6033,-6.9581,153.3335,232.64,278.87,241.83,80.91,121.89,nothing
300875,-0.8087,-3.0785,-9.3168,0.0075,0.0071,-0.0567,-18.2033,-4.3701,161.2434,75.79,98.92,97.30,118.87,90.62,-1.2175,4.2924,-8.6757,-0.1051,0.0536,0.0035,25.8535,-7.0638,153.0585,212.89,249.83,241.83,92.13,134.91,nothing
300941,-0.7273,-3.1018,-9.3377,-0.0121,0.0214,0.0067,-18.2635,-4.2987,161.2024,65.07,85.48,97.30,123.11,94.86,-0.9589,4.0799,-8.7427,-0.2769,0.1100,-0.0169,25.3728,-6.3718,153.7273,212.89,278.87,268.66,97.74,130.57,nothing
301007,-0.7979,-3.0282,-9.3263,-0.0004,0.0390,0.0041,-18.0955,-4.4751,161.3218,70.43,98.92,119.40,127.34,94.86,-1.1750,4.0727,-8.8253,-0.1750,0.0545,-0.0836,24.9757,-6.6335,154.0395,242.52,288.55,241.83,92.13,117.55,nothing
301073,-0.6447,-3.1419,-9.2904,-0.0776,-0.2650,0.1262,-18.3693,-4.1184,161.1422,75.79,94.44,101.72,127.34,86.39,-1.0840,4.2965,-8.7368,-0.2690,0.0743,-0.0380,25.4961,-6.4933,153.5730,222.76,269.19,201.58,92.13,130.57,nothing
301139,-1.1008,-2.9438,-9.0384,-0.0627,-0.0356,-0.0019,-18.1504,-5.3446,161.0260,70.43,89.96,97.30,123.11,94.86,-1.1942,4.1906,-8.5662,-0.3186,0.1497,-0.1322,25.6725,-6.8127,153.3093,212.89,269.19,255.25,103.35,134.91,nothing
301205,-0.7356,-2.9528,-9.5975,0.0612,-0.1363,0.0247,-17.5930,-4.7569,161.7344,65.07,89.96,106.14,131.58,94.86,-1.1816,4.2642,-8.6266,-0.3178,0.1391,-0.1122,25.8827,-6.9065,153.0772,252.40,298.23,241.83,97.74,130.57,nothing
301271,-1.0505,-2.9414,-9.0468,-0.0052,0.0195,-0.0361,-17.7449,-5.5167,161.3624,86.52,98.92,106.14,127.34,90.62,-1.2396,4.1451,-8.6140,-0.2423,0.1684,-0.2194,25.6763,-7.1470,153.2053,252.40,269.19,228.41,80.91,130.57,nothing
301337,-0.6333,-3.0306,-9.6466,0.0112,-0.0371,-0.0500,-17.5743,-4.5306,161.8139,86.52,94.44,101.72,118.87,90.62,-1.2456,3.9667,-8.7793,-0.2493,0.1637,-0.2140,24.8869,-7.2581,153.9354,242.52,249.83,228.41,97.74,147.93,nothing
301403,-0.7716,-3.1299,-8.9044,-0.0499,0.0729,-0.0105,-18.4168,-4.6008,160.9768,75.79,89.96,101.72,131.58,99.09,-1.1115,4.2439,-8.7044,-0.2622,0.1641,-0.2354,25.3501,-6.9022,153.5962,262.28,298.23,255.25,97.74,139.25,nothing
301469,-1.0086,-3.1108,-9.5161,0.1641,-0.1275,0.1849,-18.2096,-5.1874,161.0156,91.88,94.44,101.72,127.34,90.62,-1.0930,4.3247,-8.6152,-0.1894,0.1290,-0.1576,25.9111,-6.6860,153.1137,272.15,288.55,241.83,86.52,130.57,nothing
301535,-0.8679,-3.2562,-9.4969,0.1354,-0.1309,0.1311,-18.5342,-5.0630,160.7376,107.96,94.44,97.30,114.63,90.62,-1.2319,3.9823,-8.6901,-0.1600,0.0862,-0.0950,25.1611,-7.0139,153.7459,262.28,259.51,228.41,92.13,143.59,nothing
301601,-1.0463,-3.1599,-9.3257,0.0247,-0.0538,-0.0010,-18.5724,-5.5624,160.5536,102.60,81.00,84.05,101.93,94.86,-1.1433,4.1655,-8.6386,-0.0720,0.1039,-0.1317,25.3549,-6.9061,153.5904,252.40,288.55,268.66,97.74,139.25,nothing
301667,-0.9978,-2.9809,-9.2964,-0.0938,0.0759,-0.0787,-18.1307,-5.6984,160.9349,102.60,89.96,97.30,106.16,94.86,-1.1977,4.4899,-8.5644,-0.3598,0.1437,-0.1489,26.4009,-6.9850,152.5497,282.03,298.23,241.83,92.13,134.91,nothing
301733,-0.9122,-3.1676,-9.3120,-0.0581,-0.1129,-0.1013,-18.4172,-5.4986,160.7224,113.32,94.44,92.89,101.93,90.62,-1.1080,4.3636,-8.5404,-0.4035,0.1052,-0.2162,26.6354,-6.7880,152.3784,262.28,278.87,214.99,86.52,134.91,nothing
301799,-1.0385,-3.2802,-9.2300,-0.0679,0.1910,-0.0829,-18.9336,-5.7751,160.1404,102.60,85.48,88.47,97.69,86.39,-1.2857,4.0062,-8.6673,-0.3187,0.0922,-0.0199,25.6061,-7.2286,153.2482,242.52,269.19,255.25,103.35,143.59,nothing
301865,-0.8578,-3.1192,-9.3808,0.1164,-0.1001,0.0987,-18.6268,-5.3659,160.5605,97.24,85.48,97.30,106.16,94.86,-1.2223,4.0679,-8.6679,-0.1487,0.0466,0.0538,25.2654,-7.2518,153.5711,282.03,307.90,255.25,97.74,134.91,nothing
301931,-1.0134,-3.1024,-9.2503,-0.1046,0.2018,-0.0915,-18.5329,-5.6466,160.5654,107.96,116.84,97.30,101.93,99.09,-1.2851,4.1200,-8.6679,-0.1824,0.0894,0.0608,25.2236,-7.4396,153.5518,272.15,288.55,228.41,80.91,134.91,nothing
301997,-1.0074,-3.0042,-9.3898,0.0889,-0.1602,0.0170,-18.0886,-5.7410,160.9615,102.60,89.96,92.89,97.69,86.39,-1.2971,3.9153,-8.7272,-0.0420,0.0442,-0.0035,24.5771,-7.5815,154.1293,252.40,259.51,228.41,97.74,147.93,nothing
302063,-1.0044,-3.0820,-9.1276,-0.0045,0.0901,-0.0296,-18.3188,-5.8455,160.7073,97.24,89.96,92.89,101.93,94.86,-1.1672,4.3025,-8.6146,-0.1374,0.0746,0.0131,25.4566,-7.2465,153.3875,252.40,298.23,282.08,97.74,139.25,nothing
302129,-0.9607,-3.0970,-9.3730,0.0125,-0.0593,0.0519,-18.2568,-5.7011,160.8132,97.24,94.44,101.72,106.16,90.62,-1.2019,4.2882,-8.6667,-0.2091,0.0776,0.0818,25.7840,-7.1659,153.0949,272.15,288.55,241.83,86.52,130.57,nothing
302195,-0.8386,-3.2413,-9.2396,-0.0185,0.0712,0.0368,-18.7571,-5.2988,160.4545,107.96,94.44,92.89,97.69,86.39,-1.1894,4.3797,-8.6500,-0.2924,0.0308,0.0473,26.2127,-7.0797,152.7046,252.40,278.87,214.99,92.13,143.59,nothing
302261,-0.8236,-3.1688,-9.3102,-0.0127,0.0836,0.0774,-18.7430,-5.0426,160.5412,97.24,85.48,88.47,101.93,90.62,-1.2097,4.1744,-8.6613,-0.3735,0.1301,-0.0260,25.8655,-7.1254,153.0282,242.52,269.19,255.25,103.35,143.59,nothing
302327,-1.0140,-3.1461,-9.2114,0.0277,-0.0916,0.0264,-18.7481,-5.4933,160.4055,91.88,89.96,97.30,106.16,90.62,-1.2175,4.2223,-8.6787,-0.0120,0.1346,0.0091,25.7951,-7.1576,153.0868,272.15,288.55,241.83,92.13,134.91,nothing
302393,-0.9188,-3.1174,-9.5047,-0.0217,0.0792,-0.0183,-18.4102,-5.3694,160.7683,102.60,94.44,97.30,97.69,86.39,-1.0690,4.2888,-8.5686,-0.1226,0.0972,0.0798,26.1030,-6.7636,152.9044,262.28,269.19,214.99,80.91,139.25,nothing
302459,-1.1439,-3.1090,-9.2288,0.0968,-0.0162,0.0705,-18.4491,-6.0301,160.5222,97.24,89.96,92.89,97.69,86.39,-1.5102,4.1691,-8.6667,-0.0916,0.0619,0.2511,25.7333,-7.8470,152.9259,242.52,269.19,255.25,103.35,147.93,nothing
302525,-0.8733,-3.0491,-9.3150,0.1316,-0.0218,0.0042,-18.2510,-5.5616,160.8627,86.52,85.48,97.30,106.16,90.62,-1.1738,4.1577,-8.8026,0.1607,0.3031,0.4875,25.4101,-7.3588,153.3972,311.67,307.90,322.33,97.74,121.89,nothing
302591,-0.9613,-3.3694,-9.2599,0.1798,-0.0498,-0.0064,-19.0756,-5.5674,160.0676,102.60,98.92,101.72,106.16,86.39,-0.6764,3.9266,-8.8666,0.2054,0.0446,0.4522,24.6308,-5.6780,154.6370,361.06,327.26,308.91,80.91,82.84,nothing
302657,-0.7752,-3.3634,-9.1653,0.0860,-0.0626,0.1126,-19.5792,-5.0558,159.7264,102.60,94.44,92.89,97.69,82.16,-0.6668,4.0398,-8.9163,0.3508,-0.0204,0.3819,24.4750,-4.7839,155.0007,370.94,336.94,335.75,97.74,91.51,nothing
302723,-0.9218,-3.5310,-9.1893,0.0068,0.0226,0.1815,-20.2532,-5.2034,159.0316,91.88,85.48,92.89,101.93,90.62,-0.7763,3.9039,-8.8050,-0.2383,-0.0543,0.2418,24.1539,-4.6967,155.3357,380.81,395.01,376.00,97.74,87.18,nothing
302789,-0.9314,-3.4556,-9.2360,0.0605,0.0447,0.2293,-20.3358,-5.2997,158.9252,91.88,98.92,101.72,106.16,86.39,-0.8925,3.8183,-8.8708,-0.0633,0.0218,0.0930,23.6697,-4.9881,155.7467,400.57,395.01,349.17,86.52,74.16,nothing
302855,-1.0601,-3.0060,-9.3880,0.1089,-0.0699,0.2661,-18.9911,-5.7210,160.1020,124.05,94.44,101.72,97.69,82.16,-0.9661,3.7752,-8.8223,-0.1615,0.0848,0.0187,23.3581,-5.3673,155.9608,380.81,365.98,308.91,86.52,87.18,nothing
302921,-1.4216,-2.8648,-9.3868,0.0408,-0.3510,-0.1028,-17.8941,-6.9841,160.7043,97.24,89.96,88.47,101.93,90.62,-0.9900,3.6896,-9.0253,-0.2343,0.1361,-0.0654,22.7329,-5.5843,156.5156,361.06,356.30,349.17,103.35,95.85,nothing
302988,-1.0421,-3.1880,-10.1763,0.8170,-0.1846,-0.1890,-17.5917,-6.2552,161.2602,86.52,89.96,97.30,106.16,94.86,-0.8661,3.8835,-9.0097,-0.2439,-0.0210,0.0522,22.9792,-5.3132,156.3450,380.81,356.30,308.91,92.13,82.84,nothing
303054,-1.1858,-3.6806,-8.3531,0.6752,-0.7975,-0.1595,-20.4132,-6.8054,158.3851,97.24,94.44,97.30,114.63,90.62,-0.6584,3.8752,-8.9349,-0.4555,0.0663,-0.2797,23.1863,-4.5917,156.3106,361.06,307.90,255.25,80.91,87.18,nothing
303120,-2.0214,-4.2846,-7.6120,0.5201,-0.0301,-0.0638,-24.3581,-9.8166,153.4941,97.24,94.44,92.89,97.69,86.39,-0.4196,3.8105,-9.2886,-0.6312,0.2622,-0.4956,22.7338,-3.4774,156.9720,341.30,278.87,282.08,97.74,95.85,nothing
303186,-1.0936,-4.4097,-8.6380,-0.4162,0.1346,-0.1783,-25.6493,-8.0870,152.9256,86.52,85.48,97.30,101.93,94.86,1.1582,6.7818,-11.3334,-0.3302,-2.3611,-1.2174,27.4119,1.3850,152.5471,400.57,278.87,268.66,97.74,87.18,nothing
303252,-1.5455,-3.9763,-9.3180,-0.2543,-0.0626,0.1873,-24.1888,-8.3936,154.2166,97.24,94.44,97.30,101.93,90.62,-6.4963,4.2133,-10.3164,2.2765,-2.9899,-1.4687,23.9174,-15.3557,151.0373,449.96,269.19,255.25,86.52,82.84,nothing
303318,-1.8101,-3.3394,-9.0384,-0.0938,0.0592,0.0200,-22.0639,-9.5179,155.7685,97.24,89.96,92.89,97.69,86.39,-8.3010,3.1682,-8.5081,0.5921,-2.8239,-2.2352,19.8384,-29.2371,143.5051,440.08,240.15,268.66,103.35,100.19,nothing
303384,-1.1313,-4.3402,-8.9624,-0.1156,0.1376,-0.1351,-23.8876,-7.9891,154.6510,91.88,85.48,88.47,101.93,90.62,-10.1703,-0.0204,-5.1334,-2.1397,-1.6899,-2.3252,10.3861,-46.5303,131.6003,430.21,269.19,308.91,125.79,100.19,nothing
303450,-1.0224,-4.2116,-9.2719,0.0791,0.0529,0.3407,-24.1013,-6.8435,154.8252,91.88,94.44,101.72,106.16,90.62,-6.8692,2.0950,-4.4079,-4.4672,1.1038,-0.8822,12.1730,-50.1515,127.2338,420.33,269.19,268.66,108.96,91.51,nothing
303516,-1.0810,-3.2467,-9.0247,0.3678,-0.1945,0.0675,-21.9272,-6.6467,156.9861,102.60,98.92,97.30,97.69,86.39,-3.4190,6.0839,-4.9107,-4.3161,2.8112,0.5194,28.0241,-38.7868,128.4598,390.69,249.83,228.41,103.35,104.53,nothing
303582,-1.2624,-3.6255,-9.0450,0.2849,-0.0327,-0.2500,-21.7904,-7.0135,156.9970,91.88,89.96,88.47,101.93,86.39,-0.5860,5.2992,-6.5059,1.2268,2.3548,1.2792,35.1164,-21.6330,136.9030,361.06,240.15,228.41,120.18,104.53,nothing
303648,-1.0020,-3.8189,-10.0261,0.3211,-0.1581,-0.5669,-21.2529,-6.1368,157.7951,86.52,89.96,97.30,106.16,90.62,1.1427,4.5629,-7.7365,1.1937,1.9217,0.8625,33.8078,-6.4155,145.4227,370.94,220.79,188.16,92.13,95.85,nothing
303714,-1.0445,-4.2989,-9.1408,0.8386,-0.7168,-0.4273,-23.1348,-6.0244,156.0040,97.24,103.40,97.30,97.69,82.16,0.8691,2.7277,-8.3932,2.8797,0.4168,0.3498,25.7559,-0.1994,154.2432,341.30,153.04,134.49,69.70,95.85,nothing
303781,-1.4713,-4.6252,-8.0209,0.8418,-0.2252,-0.4789,-26.2211,-7.4742,152.5751,97.24,89.96,92.89,93.45,82.16,-0.0078,2.5415,-9.3240,2.8749,-0.0181,0.3423,20.1502,-0.1181,159.8494,301.79,124.01,161.33,86.52,100.19,nothing
303847,-1.0505,-4.8873,-7.7587,-0.0744,-0.0649,-0.0248,-29.0142,-7.0271,149.9856,75.79,85.48,92.89,101.93,90.62,-1.3839,1.5377,-9.6556,-0.9442,0.7876,1.2852,14.3348,-4.2866,165.0116,311.67,153.04,161.33,80.91,95.85,nothing
303913,-1.6551,-4.8538,-8.0729,-0.0907,-0.0649,-0.0015,-29.7706,-8.5026,148.7968,86.52,94.44,101.72,97.69,86.39,-0.7506,2.7181,-10.0632,0.0556,0.3779,0.2093,14.7250,-4.1982,164.6621,262.28,133.68,147.91,69.70,91.51,nothing
303979,-1.8819,-4.8987,-7.9682,-0.3633,0.2352,-0.3879,-30.3439,-9.9413,147.7326,91.88,107.88,92.89,97.69,82.16,-0.9224,1.7903,-9.5227,-0.4833,0.5373,0.2338,12.6820,-4.8154,166.4060,232.64,114.33,174.74,103.35,104.53,nothing
304045,-2.0752,-4.9005,-8.3680,-0.1215,0.3553,-0.0635,-29.9771,-11.0317,147.6533,86.52,85.48,92.89,97.69,86.39,-1.4617,2.4296,-9.0714,0.1778,-0.3562,0.4608,13.7383,-6.7998,164.6113,252.40,153.04,268.66,153.84,100.19,nothing
304111,-1.2809,-5.1118,-8.5704,-0.1159,0.1021,0.0130,-30.2788,-9.1412,148.0861,81.15,94.44,97.30,110.40,90.62,-0.5202,2.6110,-9.5197,-1.2605,0.1444,-0.0278,14.5443,-4.8860,164.6224,282.03,162.72,349.17,271.63,108.87,nothing
304177,-1.2432,-4.3199,-9.3575,-0.1082,0.0404,-0.1111,-27.3731,-7.9926,151.2919,86.52,94.44,97.30,101.93,82.16,-0.2861,2.8588,-9.7986,0.3889,0.0838,-0.3186,15.4268,-3.2094,164.2265,282.03,143.36,362.58,366.99,134.91,nothing
304243,-1.1546,-4.5180,-9.3293,0.4416,-0.2735,0.0901,-26.5117,-7.1628,152.3888,81.15,89.96,88.47,97.69,82.16,-0.4944,2.8947,-9.2144,-0.4743,0.4656,-0.5493,16.4060,-3.0726,163.2927,291.91,162.72,456.50,462.35,134.91,nothing
304309,-1.6473,-4.8377,-8.6715,0.6615,-0.3899,-0.0440,-27.6145,-8.2814,150.9624,70.43,89.96,97.30,106.16,86.39,-1.5138,2.7433,-9.4945,0.6615,1.1741,-0.2423,16.1833,-5.9152,162.7132,341.30,172.40,443.08,439.91,117.55,nothing
304375,-1.6874,-5.1776,-8.1334,0.3538,-0.3160,0.0668,-29.7397,-9.0956,148.6248,81.15,94.44,97.30,101.93,82.16,-1.3169,2.5798,-8.7463,-0.6797,-0.2409,-0.5472,16.2240,-7.0249,162.2425,341.30,153.04,416.25,473.57,121.89,nothing
304441,-1.4851,-4.8682,-8.2980,0.4384,-0.3029,-0.0919,-29.8715,-8.9372,148.5521,81.15,94.44,92.89,97.69,77.93,-1.8490,2.2069,-8.7888,0.4473,-0.1197,-0.4318,15.0459,-9.2438,162.2254,331.42,133.68,443.08,501.62,143.59,nothing
304507,-1.8466,-4.9586,-7.9011,0.3388,-0.0393,-0.0333,-30.6444,-10.0486,147.4017,70.43,85.48,92.89,101.93,86.39,-1.8394,2.0968,-8.5003,-1.0210,-0.8216,-0.6536,14.3222,-10.5233,162.0920,361.06,162.72,469.92,518.44,134.91,nothing
304573,-1.6970,-5.3387,-8.3082,0.2183,-0.2270,0.0957,-31.4326,-9.8976,146.6952,75.79,94.44,101.72,106.16,82.16,-3.4801,2.3985,-8.2555,-0.7478,-0.7373,-0.6766,14.7339,-16.3164,157.7306,361.06,153.04,483.34,535.27,147.93,nothing
304639,-2.2937,-5.5823,-7.8167,0.1481,-0.1035,0.0987,-32.9511,-11.6721,144.5263,86.52,98.92,92.89,101.93,77.93,-5.0047,1.2785,-9.0145,-0.7244,0.1999,-0.1363,10.7212,-22.9878,154.3686,341.30,133.68,443.08,529.66,165.29,nothing
304706,-2.3177,-5.6314,-8.0197,-0.4369,0.1419,0.1196,-33.4876,-12.4991,143.6523,75.79,89.96,88.47,97.69,86.39,-3.1641,2.5535,-8.0364,-1.2778,0.3750,0.6065,13.4900,-21.8498,153.9447,331.42,153.04,282.08,294.07,117.55,nothing
304772,-1.5006,-5.5069,-8.4458,0.1827,0.0200,0.3960,-33.1134,-10.4594,144.8533,70.43,89.96,101.72,110.40,86.39,-2.4745,1.9627,-8.2765,-1.5265,0.9039,0.1596,13.1711,-19.1111,156.4913,341.30,114.33,80.82,86.52,74.16,nothing
304838,-1.3600,-5.1016,-8.2615,-0.0795,-0.2271,0.4639,-32.2557,-9.2343,146.1306,81.15,94.44,97.30,101.93,77.93,-0.7285,3.5226,-10.9994,-0.8616,-0.3183,-0.2316,15.8623,-10.4285,160.8630,301.79,65.93,0.32,41.65,56.80,nothing
304904,-2.0525,-4.6790,-8.2346,0.0773,-0.0762,0.2943,-30.5928,-10.7164,147.1911,81.15,98.92,92.89,97.69,82.16,-1.6054,4.6485,-8.8936,-0.9310,0.7688,0.0724,21.5218,-9.8090,156.1413,291.91,46.57,40.57,36.04,35.10,nothing
304970,-2.4865,-4.3498,-7.9592,0.1433,0.0838,-0.0806,-29.1246,-12.9782,147.5865,70.43,89.96,92.89,101.93,90.62,-2.0902,3.0378,-9.0223,0.1219,0.4222,0.1125,19.8790,-11.0746,157.0119,311.67,56.25,13.74,13.60,9.06,nothing
305036,-2.3685,-4.9005,-8.2316,-0.3121,-0.0548,-0.2080,-29.4554,-13.4395,147.0501,81.15,98.92,97.30,101.93,86.39,-1.6790,3.8404,-8.8206,-0.0898,0.3104,0.0774,21.5043,-10.4966,155.8363,291.91,27.22,0.00,0.00,0.38,nothing
305102,-2.1393,-5.1411,-8.3231,-0.0424,-0.0065,-0.1624,-30.1840,-12.8802,146.6345,81.15,89.96,88.47,106.16,77.93,-1.4635,3.9254,-8.6565,-0.3625,0.3832,0.2260,22.7842,-9.6376,155.0455,272.15,17.54,13.74,19.21,9.06,nothing
305168,-2.0932,-5.1399,-8.0807,0.0691,-0.0960,-0.1580,-30.9010,-12.6066,146.0817,75.79,81.00,88.47,101.93,86.39,-0.9781,3.5310,-8.5829,0.0443,0.2308,0.2195,22.5261,-7.8647,155.9956,301.79,56.25,27.16,13.60,0.38,nothing
305234,-2.3213,-5.2962,-7.8359,0.0519,-0.1436,-0.1201,-31.9210,-13.1977,144.8348,70.43,94.44,101.72,106.16,82.16,-0.7680,4.2050,-9.2665,-0.4459,0.0593,0.4407,23.4725,-6.0298,155.6740,311.67,36.90,13.74,0.00,0.00,nothing
305300,-1.9412,-5.4458,-8.0532,0.0912,0.0434,-0.0538,-32.6297,-12.2393,144.5927,86.52,94.44,97.30,101.93,77.93,0.0066,3.7363,-10.0428,-0.1081,0.3041,0.3414,21.9089,-2.8722,157.8841,301.79,7.86,13.74,19.21,9.06,nothing
305366,-1.5766,-5.3578,-8.3160,0.0230,0.1453,-0.0085,-32.4952,-10.6340,145.3864,81.15,85.48,92.89,101.93,82.16,0.8458,3.9596,-9.5813,-0.2728,0.0324,-0.1731,22.1939,0.9201,157.7850,301.79,46.57,80.82,19.21,9.06,nothing
305432,-1.8298,-5.0795,-8.1376,0.1554,-0.0199,0.2192,-31.9229,-10.7166,145.9081,70.43,107.88,97.30,110.40,86.39,0.1305,4.5043,-9.3150,-1.1916,-0.3449,-0.7108,24.0020,0.8216,155.9822,331.42,46.57,27.16,7.99,0.38,nothing
305498,-2.1094,-5.3650,-8.0053,0.6790,0.2184,0.3130,-32.4392,-11.5330,145.0786,81.15,98.92,97.30,101.93,82.16,0.4459,3.4400,-9.8256,-0.1039,-0.7478,-0.2129,21.6309,1.6423,158.3005,301.79,17.54,0.32,7.99,22.08,nothing
305564,-2.0112,-5.0460,-8.0939,-0.1474,-0.0597,-0.0917,-31.8107,-11.7197,145.6048,102.60,107.88,92.89,93.45,82.16,-0.2005,4.4695,-8.9732,-0.7558,-0.4162,-0.9599,24.0191,0.2714,155.9791,282.03,27.22,40.57,30.43,30.76,nothing
305630,-2.0345,-5.4656,-7.9526,0.2932,-0.1095,0.0277,-32.7368,-11.8147,144.6730,70.43,81.00,92.89,106.16,86.39,0.0263,3.6591,-7.7521,0.3343,0.4675,-0.5484,24.5898,0.2278,155.4090,311.67,56.25,40.57,24.82,35.10,nothing
305696,-2.2309,-5.4255,-7.8419,-0.0169,-0.2012,-0.0646,-33.1917,-12.4904,143.9412,75.79,94.44,101.72,101.93,86.39,0.9080,4.3361,-7.8036,-0.0960,0.0086,-0.9227,26.7309,2.9587,153.0796,291.91,36.90,40.57,30.43,48.12,nothing
305762,-2.1058,-5.6757,-7.8275,0.1575,-0.3498,-0.0509,-34.0995,-12.3897,143.1096,81.15,94.44,97.30,97.69,77.93,-1.3612,1.2780,-6.7848,0.6672,-0.3305,-0.4462,19.8175,-3.1995,159.9043,272.15,36.90,94.24,75.31,74.16,nothing
305828,-2.3709,-6.0647,-7.3409,0.3554,-0.3371,0.2825,-36.1410,-13.1943,140.7723,75.79,81.00,88.47,101.93,86.39,-1.5096,4.2523,-8.1124,-1.1243,-0.6600,0.1579,23.8674,-6.5309,155.1463,301.79,75.61,121.08,69.70,69.82,nothing
305894,-2.4320,-5.6942,-7.8509,0.4072,-0.3468,0.4016,-35.4223,-13.6405,141.2635,75.79,94.44,97.30,106.16,82.16,-4.6557,3.0587,-7.1392,-3.0122,-0.5985,0.9666,22.2645,-19.0633,149.9849,291.91,65.93,107.66,58.48,65.48,nothing
305960,-3.0360,-5.3770,-7.3666,0.1006,-0.3708,0.3932,-34.7603,-15.9898,140.7131,86.52,94.44,97.30,97.69,77.93,-5.0047,2.5948,-8.6230,-1.6647,-1.4190,1.9660,18.1423,-24.5474,148.7225,272.15,36.90,107.66,69.70,82.84,nothing
306026,-3.0192,-5.6715,-7.2936,0.2485,-0.2717,0.4132,-35.2361,-17.0427,139.6751,81.15,89.96,88.47,97.69,82.16,-4.9765,4.1325,-5.7176,-1.5761,-3.0064,2.6977,23.3240,-29.8774,140.4816,272.15,65.93,147.91,80.91,78.50,nothing
306092,-3.3394,-5.3859,-7.0985,0.2687,0.0867,0.2538,-34.8763,-18.7739,138.9927,70.43,89.96,97.30,106.16,86.39,-6.2060,6.9853,-4.8897,-2.9830,-1.7089,1.7405,33.5268,-34.0062,128.1829,311.67,85.29,174.74,80.91,74.16,nothing
306158,-3.1994,-5.4895,-7.5258,0.0055,0.2536,0.1048,-34.3686,-18.8664,139.4155,81.15,98.92,101.72,101.93,82.16,-3.9242,7.1948,-6.5077,-0.9664,0.7573,1.0328,38.8451,-27.7638,128.6222,291.91,65.93,134.49,80.91,87.18,nothing
306224,-2.8312,-5.8935,-7.8227,0.0552,0.2642,0.1037,-34.8627,-17.4631,139.7896,81.15,89.96,92.89,93.45,77.93,-1.5940,10.5091,-6.9841,-1.4627,0.9599,0.8752,48.9498,-16.2729,126.4369,272.15,65.93,174.74,92.13,91.51,nothing
306290,-2.4494,-5.7858,-7.8179,-0.0500,0.0025,0.2904,-35.0640,-15.7935,140.5279,75.79,85.48,92.89,101.93,86.39,-0.6818,7.5689,-7.6761,2.5555,-0.1115,-0.2744,47.1925,-10.0505,131.0521,301.79,104.65,174.74,86.52,82.84,nothing
306356,-2.5637,-5.4314,-7.5929,0.5247,-0.0282,0.3197,-34.6036,-15.5788,141.0828,75.79,94.44,101.72,106.16,82.16,-2.2512,5.2626,-7.0727,1.6751,0.1404,0.1189,41.7988,-12.0574,135.6945,301.79,75.61,134.49,69.70,82.84,nothing
306422,-3.2461,-5.7936,-7.3702,-0.1037,-0.3298,0.1592,-35.1927,-17.3489,139.5412,81.15,89.96,92.89,97.69,77.93,-3.1060,4.2307,-5.8109,1.5012,0.1157,0.6365,37.9375,-17.0726,137.0546,282.03,65.93,147.91,86.52,95.85,nothing
306488,-3.7530,-5.5583,-6.9009,0.1001,-0.2724,0.1692,-35.2894,-20.1181,137.7515,75.79,89.96,88.47,101.93,82.16,-2.4679,5.6188,-6.0599,0.3729,0.4716,1.1513,39.2803,-16.8573,135.8637,291.91,94.97,188.16,86.52,91.51,nothing
306554,-3.6273,-5.9869,-6.8782,0.0678,-0.3260,0.1812,-36.4546,-20.9151,136.1179,70.43,89.96,97.30,106.16,82.16,-2.7540,7.2158,-7.6617,-0.5778,-0.1115,0.5194,40.5454,-15.6418,135.2715,272.15,94.97,161.33,75.31,78.50,nothing
306620,-3.1036,-5.4482,-7.0260,-0.1208,-0.0796,0.2326,-35.9183,-20.0964,137.1680,81.15,98.92,92.89,97.69,77.93,-2.9557,6.6831,-7.4780,-1.3597,0.4628,0.6724,40.1256,-16.0444,135.4743,232.64,65.93,134.49,80.91,91.51,nothing
306686,-3.0509,-5.4697,-7.2870,0.0484,0.0962,-0.1521,-35.3135,-19.3060,138.2472,81.15,89.96,88.47,93.45,82.16,-2.7977,6.5777,-7.9113,0.2922,0.0074,0.5516,39.0854,-15.6208,136.7194,203.01,94.97,174.74,92.13,91.51,nothing
306752,-3.2544,-5.8109,-7.5839,-0.0101,-0.0275,-0.1718,-35.2303,-19.0520,138.4849,70.43,85.48,97.30,101.93,86.39,-2.0286,5.6739,-7.0117,0.4173,0.6018,0.8542,38.5263,-14.2358,137.9591,222.76,104.65,174.74,80.91,82.84,nothing
306818,-3.3083,-5.8044,-7.4085,0.1208,-0.1641,-0.1153,-35.4062,-19.2109,138.2187,81.15,98.92,101.72,106.16,77.93,-0.7279,5.5015,-6.1252,-0.3155,0.2360,-0.1095,40.1325,-10.0396,138.1090,193.13,94.97,134.49,86.52,87.18,nothing
306884,-3.2790,-5.6505,-7.1709,0.0731,-0.1982,-0.1051,-35.5155,-19.4807,137.9452,81.15,94.44,92.89,97.69,73.69,-0.5746,5.3698,-7.4193,0.2462,0.1745,0.2184,38.0345,-6.7916,141.1428,163.49,94.97,174.74,103.35,95.85,nothing
306950,-3.4424,-5.7182,-7.0913,-0.0131,-0.1764,-0.0882,-35.7388,-20.0893,137.3436,75.79,94.44,92.89,114.63,103.32,-1.0212,6.3197,-7.9215,-0.1678,-0.9919,-0.0065,38.2046,-6.2429,141.1004,183.25,133.68,188.16,92.13,82.84,nothing
307016,-3.5675,-5.7122,-7.0230,-0.0634,-0.1831,-0.0837,-35.8468,-20.7976,136.7759,75.79,94.44,97.30,101.93,82.16,-2.1351,6.4604,-7.3523,-0.2348,-0.0613,-0.0083,39.2737,-9.3377,139.1949,183.25,104.65,161.33,75.31,82.84,nothing
307082,-3.3340,-5.8451,-6.9291,0.0106,-0.0596,-0.0982,-36.5401,-20.4980,136.3121,86.52,94.44,92.89,97.69,77.93,-1.6467,6.1838,-7.6258,-0.3164,0.0329,0.1678,38.8345,-9.4303,139.5996,163.49,75.61,147.91,92.13,95.85,nothing
307148,-3.3831,-6.1713,-7.0500,-0.0547,0.0852,0.0356,-37.4217,-20.1737,135.6759,75.79,89.96,88.47,97.69,99.09,-1.4222,6.3413,-7.0877,-0.2718,0.0834,0.0196,40.0302,-8.9758,138.5594,173.37,104.65,188.16,97.74,91.51,nothing
307214,-3.4244,-5.8253,-7.1607,-0.0799,0.0931,0.0759,-36.8480,-20.2647,136.1693,70.43,89.96,92.89,106.16,86.39,-1.7538,6.1809,-7.3714,0.5032,0.1475,0.1430,39.6196,-9.6554,138.7477,203.01,94.97,147.91,80.91,74.16,nothing
307280,-3.5382,-5.6846,-7.2535,0.1066,-0.0883,0.1309,-36.0027,-20.6366,136.7342,86.52,98.92,97.30,101.93,82.16,-1.4940,5.9516,-7.4223,0.2564,0.1182,0.0788,38.9015,-9.2934,139.5778,173.37,75.61,121.08,86.52,91.51,nothing
307346,-3.6166,-5.7367,-6.9764,0.0372,-0.1215,0.0594,-36.0690,-21.2256,136.2775,81.15,94.44,88.47,97.69,77.93,-1.5072,5.9666,-7.3977,-0.2624,0.0652,0.0279,38.6117,-9.1530,139.9097,173.37,85.29,174.74,103.35,91.51,nothing
307412,-3.5388,-5.6655,-7.0991,-0.0100,-0.0240,0.0127,-35.8031,-21.2564,136.5097,70.43,85.48,92.89,101.93,90.62,-1.5252,5.9241,-7.5504,-0.1865,0.0521,-0.0927,38.0858,-9.0917,140.4495,193.13,104.65,161.33,103.35,82.84,nothing
307478,-3.6106,-5.7726,-7.1793,-0.0729,-0.0294,0.1190,-35.7468,-21.3296,136.5135,81.15,94.44,97.30,106.16,77.93,-1.6281,6.1378,-7.4043,-0.1006,0.1577,0.0442,38.5420,-9.3512,139.9148,183.25,85.29,121.08,86.52,82.84,nothing
307544,-3.6010,-5.7696,-7.1876,-0.1138,-0.0045,0.0766,-35.7065,-21.3350,136.5481,81.15,94.44,88.47,97.69,77.93,-1.5934,5.9737,-7.4277,-0.1937,0.1467,0.0813,38.3617,-9.4205,140.0705,153.62,75.61,161.33,103.35,95.85,nothing
307610,-3.5555,-5.6026,-7.1284,0.1446,-0.0359,0.0735,-35.4150,-21.3740,136.7980,75.79,85.48,88.47,97.69,86.39,-1.5389,6.0168,-7.4019,-0.1692,0.1438,0.0578,38.4382,-9.2928,140.0365,183.25,104.65,174.74,97.74,87.18,nothing
307676,-3.4747,-6.4143,-6.9572,0.4995,0.0274,0.2372,-37.4945,-20.7727,135.2130,75.79,94.44,97.30,101.93,86.39,-1.5180,6.0474,-7.4576,-0.1701,0.0575,0.0177,38.4547,-9.1381,140.0698,183.25,94.97,147.91,86.52,78.50,nothing
307742,-3.7740,-5.5392,-6.8854,-0.0029,-0.0177,0.0787,-36.3721,-21.9322,135.5049,91.88,94.44,92.89,101.93,77.93,-1.4432,5.9779,-7.4031,-0.1560,0.0669,0.0176,38.4276,-8.8821,140.1772,163.49,65.93,147.91,97.74,91.51,nothing
307808,-3.7459,-6.0450,-6.9452,0.0961,0.0010,0.1091,-36.9184,-22.0372,134.9087,75.79,89.96,84.05,97.69,82.16,-1.5276,5.9947,-7.4827,-0.1382,0.0318,0.0064,38.2785,-8.9675,140.2981,163.49,104.65,188.16,103.35,91.51,nothing
307874,-3.7123,-5.9402,-6.9039,0.1778,-0.0046,0.2234,-37.0367,-22.1066,134.7466,91.88,89.96,97.30,106.16,86.39,-1.5605,5.9540,-7.4019,0.0811,0.0446,0.0607,38.2424,-9.1475,140.2768,183.25,104.65,161.33,92.13,78.50,nothing
307940,-3.8087,-5.6727,-6.8692,0.0975,-0.2192,0.3226,-36.4428,-22.6239,134.9520,81.15,103.40,92.89,101.93,77.93,-1.6054,5.8893,-7.4971,-0.2034,0.0226,0.0402,37.8857,-9.3532,140.5629,173.37,75.61,134.49,92.13,91.51,nothing
308006,-3.7608,-6.3221,-6.6388,0.6613,0.0243,0.2210,-38.0563,-22.4731,133.5034,81.15,89.96,88.47,93.45,77.93,-1.5000,6.0192,-7.4618,-0.2038,0.0491,0.0241,38.1130,-9.1225,140.4127,153.62,85.29,174.74,108.96,91.51,nothing
308072,-4.1900,-6.3766,-7.2002,0.0896,-0.1890,0.4034,-37.7354,-23.0240,133.4215,70.43,89.96,92.89,118.87,86.39,-1.5294,5.9582,-7.4630,-0.2251,0.0200,0.0010,38.0712,-9.1105,140.4579,183.25,114.33,161.33,97.74,82.84,nothing
308138,-4.6437,-6.5238,-6.8914,0.5123,-0.3580,0.7310,-37.9585,-24.5816,132.0507,81.15,98.92,101.72,106.16,82.16,-1.5341,5.9456,-7.5031,-0.1669,0.0337,0.0648,37.9476,-9.1075,140.5811,173.37,94.97,134.49,86.52,82.84,nothing
308204,-6.1916,-6.7250,-6.8231,0.0916,-0.4545,0.7562,-37.1106,-28.9318,129.3444,86.52,94.44,92.89,97.69,77.93,-1.5270,5.8977,-7.5306,-0.1620,0.1043,0.0117,37.7278,-9.0888,140.8043,153.62,75.61,161.33,103.35,100.19,nothing
308270,-4.8239,-5.9648,-6.7788,0.3998,-0.8557,1.2199,-36.3993,-28.5389,130.3742,81.15,85.48,92.89,101.93,82.16,-1.6042,5.8774,-7.3828,-0.1401,0.0488,0.0067,37.8044,-9.3666,140.6389,173.37,104.65,174.74,97.74,87.18,nothing
308336,-5.1615,-6.0198,-6.1850,-0.5175,-0.5519,0.9338,-36.5924,-29.6848,129.1960,81.15,94.44,101.72,106.16,82.16,-1.5683,5.9474,-7.4636,-0.2444,0.0200,0.0523,37.8764,-9.3493,140.5735,173.37,94.97,174.74,86.52,74.16,nothing
308402,-5.5206,-5.0549,-6.5232,-1.6223,-0.9019,0.8395,-33.6579,-31.7256,130.1820,91.88,94.44,97.30,101.93,82.16,-1.6251,5.8947,-7.3618,-0.2157,0.0654,0.0078,37.9490,-9.5622,140.4314,163.49,65.93,147.91,92.13,91.51,nothing
308468,-5.2525,-4.8945,-6.6094,-1.9822,-2.2778,1.4237,-31.9115,-32.1545,131.3999,86.52,89.96,92.89,97.69,82.16,-1.5946,5.8283,-7.4181,-0.1316,0.0575,-0.0536,37.7396,-9.5781,140.6328,163.49,94.97,174.74,103.35,87.18,nothing
308534,-6.0498,-3.3915,-6.0438,-1.7892,-1.9934,1.5375,-27.0014,-36.5570,131.5024,75.79,89.96,101.72,101.93,86.39,-1.5234,5.9085,-7.3738,-0.1798,0.0165,-0.0438,37.9307,-9.3685,140.5135,193.13,104.65,161.33,92.13,78.50,nothing
308600,-6.8381,-2.5601,-5.8522,-1.1283,-2.3495,1.0246,-21.5271,-41.8364,130.4231,91.88,98.92,101.72,101.93,86.39,-1.6078,5.9408,-7.4396,-0.2083,0.0341,-0.0923,37.9519,-9.4773,140.4568,163.49,94.97,147.91,97.74,87.18,nothing
308666,-7.1290,-3.2275,-5.7756,-0.3778,-2.7223,1.0229,-20.4530,-44.5355,128.4102,91.88,89.96,106.14,97.69,90.62,-1.5551,5.8103,-7.5689,-0.2225,0.0588,-0.0507,37.4455,-9.3669,140.9932,153.62,85.29,174.74,108.96,91.51,nothing
308732,-8.4788,-2.7480,-4.1146,-0.1448,-2.2943,0.4109,-18.4849,-52.2641,121.5671,86.52,85.48,110.56,106.16,99.09,-1.6293,5.9702,-7.3535,-0.1875,0.0029,-0.0041,37.9236,-9.5637,140.4559,183.25,114.33,174.74,97.74,82.84,nothing
308798,-9.3533,-2.3201,-3.5819,-0.3266,-1.9470,0.2346,-15.7584,-59.1025,115.8368,91.88,94.44,119.40,101.93,94.86,-1.6886,5.8636,-7.5504,-0.0335,0.1257,-0.1073,37.5392,-9.7915,140.7584,173.37,94.97,147.91,80.91,82.84,nothing
308864,-8.3082,-1.7245,-2.6876,0.1894,-0.3191,-0.1890,-13.6238,-63.7841,111.9451,97.24,94.44,114.98,97.69,86.39,-1.6167,5.9737,-7.3313,-0.1827,0.1111,0.0149,38.0226,-9.7469,140.2966,153.62,65.93,147.91,103.35,95.85,nothing
308931,-8.4369,-2.7313,-2.8001,-0.0004,-0.0573,0.3081,-15.3571,-64.5767,109.7478,91.88,85.48,106.14,97.69,94.86,-1.6539,5.8702,-7.3960,-0.1367,0.1140,-0.0526,37.8918,-9.8406,140.3937,173.37,104.65,174.74,97.74,87.18,nothing
308997,-8.1005,-2.1956,-3.2060,0.2650,0.3988,0.4683,-14.7627,-64.4885,110.3176,81.15,89.96,132.65,106.16,94.86,-1.6670,5.9139,-7.4199,-0.1609,0.0450,-0.0078,37.8811,-9.9027,140.3829,173.37,94.97,147.91,80.91,74.16,nothing
309063,-8.5656,-1.8550,-3.6004,0.1770,0.3945,0.3716,-12.9975,-64.6614,111.3525,97.24,94.44,110.56,97.69,90.62,-1.6706,5.8959,-7.4594,-0.1910,0.0442,-0.0249,37.7618,-9.9341,140.4898,153.62,65.93,134.49,97.74,91.51,nothing
309129,-8.1274,-1.5868,-3.4615,0.1885,0.8285,0.0147,-11.6165,-64.8185,112.0135,91.88,89.96,106.14,93.45,90.62,-1.7257,5.7026,-7.4534,-0.1423,0.0523,-0.0195,37.2338,-10.1759,140.9253,153.62,94.97,174.74,103.35,87.18,nothing
309195,-8.5847,-2.0836,-4.2343,0.4900,0.7773,-0.0518,-11.9662,-62.9507,113.8750,86.52,85.48,110.56,106.16,94.86,-1.6981,5.9001,-7.4708,-0.1599,0.0830,-0.0035,37.4179,-10.1450,140.7549,183.25,94.97,161.33,92.13,78.50,nothing
309261,-8.4979,-2.3374,-4.4450,-0.1303,0.3234,-0.0578,-12.8550,-61.1472,115.3542,91.88,94.44,110.56,101.93,94.86,-1.7065,5.8355,-7.4810,-0.1359,0.0675,-0.0788,37.3355,-10.1708,140.8269,163.49,75.61,121.08,92.13,91.51,nothing
309327,-8.2633,-2.2123,-4.1218,-0.2319,0.5793,-0.1849,-13.1614,-60.8196,115.5391,97.24,89.96,110.56,97.69,90.62,-1.6844,5.8271,-7.4043,-0.1633,0.0919,-0.0303,37.4184,-10.1532,140.7515,143.74,75.61,174.74,108.96,91.51,nothing
309393,-8.5668,-2.5942,-4.3774,0.0462,0.1770,-0.0733,-14.1457,-60.0478,115.8092,91.88,81.00,110.56,101.93,94.86,-1.7173,5.8882,-7.4684,-0.1806,0.0893,-0.0285,37.4780,-10.1946,140.6781,173.37,104.65,161.33,97.74,82.84,nothing
309459,-8.3291,-2.5373,-4.3893,0.2510,0.2030,0.0120,-14.6146,-59.3606,116.2820,91.88,94.44,114.98,106.16,90.62,-1.6455,5.8415,-7.4498,-0.1580,0.0799,0.0499,37.4590,-10.0276,140.7557,163.49,85.29,134.49,86.52,82.84,nothing
309525,-8.4877,-2.2087,-4.2355,0.2372,0.4166,-0.0701,-13.8621,-59.9988,116.0325,102.60,89.96,114.98,97.69,86.39,-1.7185,5.8480,-7.4540,-0.1481,0.0254,-0.0155,37.4285,-10.1543,140.7412,143.74,65.93,147.91,103.35,100.19,nothing
309591,-7.7174,-2.4075,-4.4384,0.1894,0.1700,0.0399,-14.4842,-58.4459,117.3654,91.88,85.48,106.14,97.69,90.62,-1.7622,5.7529,-7.4869,-0.1812,0.1207,0.0304,37.1121,-10.3630,140.9780,173.37,94.97,174.74,97.74,87.18,nothing
309657,-8.0113,-2.5457,-4.6647,0.0917,0.1062,-0.1087,-14.9247,-57.4373,118.2033,86.52,89.96,110.56,101.93,90.62,-1.7371,5.8133,-7.4504,-0.1464,0.0207,-0.0128,37.1714,-10.3892,140.9100,173.37,94.97,147.91,86.52,78.50,nothing
309723,-8.2687,-2.6092,-4.5707,0.1081,0.0334,0.0248,-15.1850,-57.4822,117.9972,97.24,98.92,114.98,101.93,86.39,-1.7299,5.8283,-7.3989,-0.1625,0.0645,0.0282,37.3301,-10.3982,140.7506,153.62,65.93,134.49,92.13,91.51,nothing
309789,-8.1430,-2.5200,-4.6234,0.0563,0.1114,0.0447,-15.1237,-57.2971,118.2365,97.24,94.44,106.14,97.69,94.86,-1.6772,5.8361,-7.4690,-0.1141,0.1006,-0.0168,37.3261,-10.2159,140.8202,153.62,94.97,174.74,103.35,87.18,nothing
309855,-8.2753,-2.5661,-4.7754,0.0607,0.0648,-0.0457,-15.0784,-57.0316,118.5529,81.15,85.48,110.56,101.93,94.86,-1.6616,5.8289,-7.3924,-0.1956,0.0540,0.0124,37.4484,-10.1133,140.7361,183.25,94.97,161.33,92.13,78.50,nothing
309921,-8.1268,-2.5176,-4.5019,-0.0116,-0.0402,-0.1223,-15.1203,-57.3124,118.2219,91.88,116.84,114.98,101.93,90.62,-1.6425,5.8223,-7.5019,-0.2207,0.0928,-0.0228,37.3079,-9.9627,140.9273,163.49,75.61,121.08,92.13,87.18,nothing
309987,-8.1639,-2.6235,-4.4378,0.0545,0.0061,-0.0286,-15.4429,-57.5229,117.7937,97.24,89.96,110.56,97.69,86.39,-1.6916,5.8600,-7.4462,-0.1527,0.0889,0.0333,37.4058,-10.0423,140.8030,143.74,75.61,161.33,103.35,91.51,nothing
310053,-8.2597,-2.5254,-4.4480,-0.0894,-0.0641,0.1144,-15.2546,-57.8780,117.5205,91.88,81.00,106.14,97.69,94.86,-1.7544,5.7822,-7.5139,-0.2033,0.1159,0.0573,37.1264,-10.2633,140.9998,173.37,104.65,174.74,97.74,82.84,nothing
310119,-7.9993,-2.4703,-4.3965,0.0935,0.0183,0.0022,-15.1997,-57.8255,117.6120,91.88,98.92,114.98,106.16,107.55,-1.6664,5.8187,-7.4786,-0.1626,0.0945,0.0199,37.1703,-10.1189,141.0079,163.49,85.29,134.49,80.91,82.84,nothing
310186,-8.1861,-2.5757,-4.5192,-0.0609,-0.0027,-0.0428,-15.3007,-57.6954,117.6924,97.24,94.44,110.56,97.69,90.62,-1.6952,5.9127,-7.4534,-0.2075,0.0796,0.0038,37.4473,-10.1110,140.7380,143.74,75.61,147.91,103.35,95.85,nothing
310252,-8.2142,-2.4727,-4.3600,0.0446,-0.0498,0.1335,-15.0959,-58.1514,117.3180,91.88,89.96,101.72,97.69,90.62,-1.6850,5.8313,-7.4869,-0.2453,0.0553,0.0432,37.3385,-10.0896,140.8527,173.37,104.65,174.74,97.74,87.18,nothing
310318,-8.1579,-2.8444,-4.6132,0.7915,0.1621,0.0886,-15.9978,-57.2739,117.7168,81.15,89.96,114.98,101.93,94.86,-1.7365,5.8564,-7.4259,-0.1765,0.0753,0.0319,37.4303,-10.2467,140.7066,173.37,94.97,147.91,86.52,78.50,nothing
310384,-8.4901,-1.9304,-4.2235,-0.0939,-0.0080,0.0046,-13.7591,-59.3304,116.8235,97.24,98.92,110.56,101.93,90.62,-1.7418,5.8810,-7.4343,-0.1827,0.1341,0.0354,37.5170,-10.3295,140.5914,153.62,65.93,161.33,97.74,91.51,nothing
310450,-8.3752,-2.5505,-4.3797,-0.0416,0.0487,-0.1166,-14.4342,-59.0793,116.7015,97.24,89.96,101.72,93.45,86.39,-1.6964,5.8660,-7.4025,-0.1652,0.0447,0.0071,37.5998,-10.2559,140.5363,163.49,94.97,174.74,103.35,91.51,nothing
310516,-8.0298,-2.7133,-4.4127,0.0300,-0.0581,0.0428,-15.4562,-58.1418,117.1035,86.52,85.48,106.14,101.93,94.86,-1.7107,5.8008,-7.4468,-0.2151,0.0635,0.0375,37.4027,-10.2641,140.7275,183.25,94.97,161.33,92.13,78.50,nothing
310582,-8.0676,-2.7474,-4.3959,0.0568,-0.0668,0.0658,-16.0509,-57.7133,117.1955,86.52,94.44,137.07,101.93,90.62,-1.6964,5.8313,-7.5169,-0.1798,0.0878,-0.0061,37.2589,-10.1869,140.8966,163.49,75.61,121.08,92.13,91.51,nothing
310648,-8.1508,-2.4733,-4.3355,-0.0252,0.0371,-0.0020,-15.5259,-58.1164,117.0873,97.24,94.44,110.56,97.69,86.39,-1.6539,5.8732,-7.4666,-0.2159,0.0825,0.0494,37.3915,-10.0314,140.8210,143.74,75.61,174.74,103.35,91.51,nothing
310714,-8.3758,-2.7109,-4.5569,0.1870,0.0044,0.0293,-15.7014,-57.8865,117.2297,91.88,85.48,106.14,97.69,90.62,-1.6946,5.8965,-7.4588,-0.1179,0.0513,0.0254,37.5102,-10.0684,140.6909,173.37,114.33,161.33,97.74,82.84,nothing
310780,-8.2812,-2.4476,-4.2481,-0.1077,0.0082,0.0498,-15.2215,-58.6255,116.7167,91.88,89.96,114.98,106.16,94.86,-1.7017,5.9025,-7.4660,-0.1570,0.0768,0.0712,37.5680,-10.1030,140.6218,173.37,85.29,134.49,80.91,82.84,nothing
310846,-8.2561,-2.5379,-3.9613,0.1569,0.1793,0.0872,-15.3574,-59.4719,115.6871,118.68,98.92,110.56,101.93,90.62,-1.6646,5.8133,-7.4540,-0.1318,0.0311,-0.0068,37.4227,-10.0453,140.7853,143.74,65.93,147.91,103.35,95.85,nothing
310912,-8.1903,-2.3943,-4.5066,0.1391,-0.0623,0.3497,-14.8625,-58.7823,116.7675,97.24,103.40,132.65,110.40,90.62,-1.6993,5.8672,-7.4480,-0.1532,0.0907,0.0106,37.4738,-10.1033,140.7146,163.49,94.97,174.74,103.35,87.18,nothing
310978,-8.4255,-2.5601,-4.4899,0.2812,-0.2435,0.3324,-14.9377,-58.6259,116.8934,86.52,246.79,304.97,216.30,120.25,-1.7263,5.8636,-7.4810,-0.1251,0.1055,0.0472,37.4220,-10.1986,140.7319,173.37,94.97,147.91,86.52,78.50,nothing
311044,-7.7743,-2.4811,-4.1996,-0.0687,-0.1740,0.2117,-15.2998,-58.2723,117.0579,129.41,488.76,517.05,385.74,272.61,-1.6467,5.8630,-7.3798,-0.1403,0.0701,-0.0098,37.6054,-10.0549,140.6019,153.62,65.93,134.49,92.13,91.51,nothing
311110,-8.9768,-2.5984,-4.5114,0.2245,-0.6012,0.3444,-14.8831,-59.1172,116.3848,183.02,690.39,671.69,512.82,450.36,-1.7706,5.8427,-7.4654,-0.1922,0.0754,0.0252,37.4476,-10.3177,140.6641,153.62,94.97,174.74,103.35,91.51,nothing
311176,-8.7649,-2.3691,-4.2493,0.1440,-0.7195,0.5791,-14.2747,-60.0476,115.7310,333.14,851.71,839.58,703.43,700.06,-1.7035,5.8558,-7.4750,-0.1767,0.0564,0.0140,37.4102,-10.2442,140.7272,183.25,104.65,161.33,92.13,78.50,nothing
311242,-8.3106,-2.2458,-3.6543,0.1235,-0.6013,0.2731,-14.0951,-61.3354,114.4100,488.62,1000.00,1000.00,872.87,949.76,-1.7293,5.8163,-7.4786,-0.1888,0.1198,0.0525,37.2815,-10.2942,140.8361,163.49,85.29,121.08,86.52,82.84,nothing
311308,-9.3293,-2.5218,-3.7997,0.1414,-0.5416,0.5629,-14.0789,-62.6981,112.8836,692.35,1000.00,1000.00,1000.00,1000.00,-1.7011,5.8385,-7.4169,-0.1269,0.1198,0.0150,37.3893,-10.2553,140.7438,143.74,85.29,174.74,103.35,91.51,nothing
311374,-8.7236,-1.7999,-3.4214,0.2631,-1.4456,1.4786,-12.5173,-64.3725,111.9809,756.68,1000.00,1000.00,1000.00,1000.00,-1.6970,5.7954,-7.3966,-0.2089,0.0995,0.0112,37.3789,-10.2461,140.7574,173.37,114.33,174.74,97.74,82.84,nothing
311440,-9.1049,-0.4316,-3.1646,0.2045,-0.3316,0.4278,-7.5759,-67.8767,110.6568,955.05,1000.00,1000.00,1000.00,1000.00,-1.7466,5.8427,-7.4732,-0.1677,0.0571,0.0064,37.3304,-10.3398,140.7715,173.37,85.29,134.49,86.52,82.84,nothing
311506,-9.3204,-1.0535,-2.4404,-0.0961,-0.9505,1.0305,-6.9173,-70.9883,107.6187,1000.00,1000.00,1000.00,1000.00,1000.00,-1.6970,5.8474,-7.4899,-0.1670,0.1175,0.0521,37.3082,-10.2324,140.8318,153.62,65.93,147.91,103.35,95.85,nothing
311572,-9.1336,-1.1086,-2.6211,0.8736,-0.5797,0.7130,-6.7872,-71.8375,106.7647,1000.00,1000.00,1000.00,1000.00,1000.00,-1.7670,5.7756,-7.4205,-0.1880,0.1032,0.0049,37.2205,-10.4367,140.8445,163.49,94.97,188.16,103.35,87.18,nothing
311638,-8.4686,-0.5393,-1.9669,-0.3111,0.6433,-0.3295,-5.2513,-74.0610,105.0056,1000.00,1000.00,1000.00,1000.00,1000.00,-1.7658,5.8199,-7.4552,-0.1805,0.0967,0.0270,37.2210,-10.5061,140.8187,173.37,94.97,147.91,92.13,74.16,nothing
311704,-9.4018,-0.7021,-2.3847,-0.2199,0.3446,-0.1489,-4.6791,-74.6474,104.5886,1000.00,1000.00,1000.00,1000.00,1000.00,-1.7185,5.8642,-7.4247,-0.1590,0.0864,0.0090,37.3995,-10.4004,140.6816,163.49,75.61,134.49,92.13,91.51,nothing
311770,-9.4532,-0.9416,-2.7558,0.2191,0.0476,0.1879,-5.0803,-73.7423,105.4017,1000.00,1000.00,1000.00,1000.00,1000.00,-1.7143,5.8870,-7.4827,-0.1149,0.0727,0.0333,37.4417,-10.3035,140.6750,153.62,85.29,174.74,108.96,91.51,nothing
311836,-8.5111,-1.1546,-2.8067,0.0739,0.0650,0.4840,-6.1747,-72.1248,106.7073,1000.00,1000.00,1000.00,1000.00,1000.00,-1.6928,5.8840,-7.4385,-0.1915,0.1009,0.0409,37.5423,-10.2116,140.6087,173.37,104.65,161.33,97.74,82.84,nothing
311902,-9.0654,-1.0002,-2.6523,0.3799,0.3734,-0.0787,-6.1093,-72.3826,106.4591,1000.00,1000.00,1000.00,1000.00,1000.00,-1.7227,5.8744,-7.4708,-0.1690,0.1147,-0.0198,37.5009,-10.2429,140.6383,163.49,85.29,121.08,86.52,82.84,nothing
311968,-9.6065,-0.5908,-2.5517,-0.0375,0.3438,0.0363,-4.7185,-73.6321,105.6363,1000.00,1000.00,1000.00,1000.00,1000.00,-1.7371,5.8355,-7.4983,-0.1134,0.1024,0.0399,37.3344,-10.3017,140.7813,143.74,75.61,147.91,103.35,95.85,nothing
312034,-9.1917,-0.6321,-2.5547,0.1157,0.1656,0.0845,-4.2576,-73.8316,105.5680,1000.00,1000.00,1000.00,1000.00,1000.00,-1.8029,5.8959,-7.5276,-0.1670,0.0847,0.0016,37.3156,-10.4906,140.7314,173.37,104.65,174.74,97.74,91.51,nothing
312100,-9.1575,-0.6560,-2.6391,-0.1221,0.2027,0.0324,-4.0984,-73.6482,105.8019,1000.00,1000.00,1000.00,1000.00,1000.00,-1.6808,5.7607,-7.4408,-0.1570,0.0964,0.0344,37.1884,-10.3101,140.9220,173.37,94.97,147.91,80.91,74.16,nothing
312166,-9.2701,-0.9128,-2.8145,0.1483,-0.1261,0.1239,-4.7455,-72.9746,106.3118,1000.00,1000.00,1000.00,1000.00,1000.00,-1.7311,5.8630,-7.4492,-0.1397,0.0821,0.0290,37.3318,-10.3294,140.7738,153.62,65.93,134.49,97.74,91.51,nothing
312232,-8.9026,-1.5102,-3.0054,0.1351,0.2354,0.1547,-6.9233,-71.2219,107.3665,1000.00,1000.00,1000.00,1000.00,1000.00,-1.7365,5.9235,-7.4049,-0.1637,0.0766,0.0228,37.6220,-10.3533,140.4795,173.37,94.97,174.74,103.35,87.18,nothing
312298,-9.0492,-1.4432,-3.1443,0.3134,-0.0731,0.0649,-7.7505,-70.1484,108.1591,1000.00,1000.00,1000.00,1000.00,1000.00,-1.6808,5.8085,-7.4253,-0.2383,0.0788,0.0323,37.4827,-10.2316,140.6603,183.25,94.97,161.33,92.13,74.16,nothing
312364,-9.0624,-0.5435,-2.9803,0.1134,0.0513,0.0646,-5.5145,-70.9447,108.1808,1000.00,1000.00,1000.00,1000.00,1000.00,-1.7628,5.8349,-7.4594,-0.1119,0.1198,-0.0140,37.3814,-10.3881,140.7038,163.49,75.61,121.08,92.13,87.18,nothing
312430,-9.1935,-0.6913,-2.6577,-0.0631,-0.0288,-0.1828,-4.8238,-72.1615,107.1316,1000.00,1000.00,1000.00,1000.00,1000.00,-1.7143,5.8187,-7.4223,-0.2166,0.0544,-0.0221,37.3778,-10.3452,140.7229,143.74,75.61,174.74,114.57,91.51,nothing
312496,-9.2539,-0.9547,-2.9689,0.0533,0.0303,0.0334,-5.2209,-71.7673,107.4187,1000.00,1000.00,1000.00,1000.00,1000.00,-1.7233,5.8463,-7.4271,-0.2173,0.0773,0.0185,37.4291,-10.3390,140.6746,173.37,104.65,161.33,97.74,82.84,nothing
312562,-8.8840,-1.2803,-2.9599,0.0012,-0.1741,0.1048,-6.4884,-70.9464,107.8346,1000.00,1000.00,1000.00,1000.00,1000.00,-1.7472,5.8091,-7.4558,-0.1670,0.0571,-0.0297,37.3063,-10.4062,140.7711,163.49,85.29,134.49,86.52,82.84,nothing
312628,-8.5386,-1.0673,-2.8588,0.0252,0.1031,-0.1708,-6.6204,-70.6485,108.0990,1000.00,1000.00,1000.00,1000.00,1000.00,-1.7730,5.8038,-7.4654,-0.1857,0.0950,-0.0091,37.2048,-10.5129,140.8322,143.74,65.93,147.91,103.35,95.85,nothing
312694,-9.4431,-0.9152,-2.9629,-0.0560,0.1708,-0.3136,-5.9303,-71.2601,107.7104,1000.00,1000.00,1000.00,1000.00,1000.00,-1.7317,5.7870,-7.4486,-0.1701,0.0634,0.0299,37.1606,-10.4580,140.8957,163.49,104.65,174.74,97.74,87.18,nothing
312760,-9.5658,-1.0355,-2.8636,0.0237,0.0965,-0.0980,-5.9257,-71.8134,107.1302,1000.00,1000.00,1000.00,1000.00,1000.00,-1.7305,5.8253,-7.4031,-0.1930,0.0631,-0.0136,37.3101,-10.4336,140.7576,173.37,94.97,147.91,92.13,78.50,nothing
312826,-9.1911,-1.1780,-2.9749,0.0593,-0.0359,0.0902,-6.4365,-71.3156,107.4637,1000.00,1000.00,1000.00,1000.00,1000.00,-1.6856,5.9145,-7.4534,-0.1791,0.0578,0.0048,37.5256,-10.2390,140.6154,153.62,65.93,134.49,92.13,91.51,nothing
312892,-8.6266,-0.9793,-2.9528,-0.0421,0.0470,0.0281,-6.2886,-70.7643,108.1022,1000.00,1000.00,1000.00,1000.00,1000.00,-1.7700,5.8235,-7.4821,-0.2039,0.1138,-0.0138,37.3332,-10.4068,140.7445,153.62,94.97,174.74,103.35,87.18,nothing
312958,-9.1174,-0.9847,-2.9929,0.0633,0.1821,-0.1112,-6.0717,-70.8522,108.0884,1000.00,1000.00,1000.00,1000.00,1000.00,-1.7724,5.8307,-7.4031,-0.1873,0.1063,0.0634,37.3918,-10.5290,140.6423,183.25,104.65,161.33,92.13,74.16,nothing
313024,-9.2060,-0.9661,-3.0551,-0.0243,0.0883,-0.1391,-5.8779,-70.8316,108.1778,1000.00,1000.00,1000.00,1000.00,1000.00,-1.7490,5.8217,-7.5085,-0.1238,0.0791,-0.0166,37.2243,-10.4798,140.8251,163.49,75.61,121.08,86.52,82.84,nothing
313090,-9.0324,-1.1409,-3.0797,0.0241,-0.0041,0.0090,-6.3467,-70.4293,108.4335,1000.00,1000.00,1000.00,1000.00,1000.00,-1.7293,5.8091,-7.4438,-0.2011,0.0673,-0.0038,37.2324,-10.4291,140.8356,143.74,75.61,161.33,103.35,91.51,nothing
313156,-8.8774,-1.1319,-3.0018,-0.0727,-0.0159,0.0537,-6.6142,-70.2830,108.4878,1000.00,1000.00,1000.00,1000.00,1000.00,-1.7562,5.8917,-7.4013,-0.1508,0.0778,0.0098,37.4957,-10.4731,140.5604,173.37,114.33,174.74,97.74,82.84,nothing
313222,-8.8355,-1.2606,-3.0928,0.0634,0.1194,-0.0668,-7.1394,-69.7939,108.7998,1000.00,1000.00,1000.00,1000.00,1000.00,-1.7574,5.9043,-7.3972,-0.1785,0.0818,0.0074,37.6639,-10.4961,140.3865,163.49,85.29,134.49,80.91,78.50,nothing
313288,-9.3976,-1.1475,-2.9701,-0.0450,0.1635,-0.2162,-6.8851,-70.5549,108.0936,1000.00,1000.00,1000.00,1000.00,1000.00,-1.7604,5.8151,-7.4061,-0.1887,0.0735,0.0374,37.5203,-10.5427,140.5108,143.74,65.93,147.91,103.35,91.51,nothing
313354,-9.1378,-1.0565,-3.0419,0.0018,0.0549,-0.0840,-6.5729,-70.5738,108.1963,1000.00,1000.00,1000.00,1000.00,1000.00,-1.7412,5.8008,-7.4804,-0.1633,0.0601,0.0697,37.2913,-10.4828,140.7581,153.62,94.97,201.58,103.35,87.18,nothing
313420,-8.9157,-1.2774,-3.0701,-0.2003,-0.0732,0.0654,-7.1385,-70.0692,108.5074,1000.00,1000.00,1000.00,1000.00,1000.00,-1.7490,5.8307,-7.4762,-0.2004,0.0803,0.0146,37.2521,-10.4675,140.8022,173.37,94.97,147.91,92.13,74.16,nothing
313486,-8.8397,-1.1798,-3.1323,0.0439,-0.0338,0.0382,-7.1544,-69.6687,108.9268,1000.00,1000.00,1000.00,1000.00,1000.00,-1.7209,5.8259,-7.4510,-0.2119,0.0669,0.0016,37.2768,-10.3898,140.8062,153.62,65.93,121.08,92.13,87.18,nothing
313552,-8.8271,-0.9978,-3.1263,0.0008,0.0232,-0.1504,-6.6215,-69.6453,109.1572,1000.00,1000.00,1000.00,1000.00,1000.00,-1.7646,5.8816,-7.3948,-0.1543,0.0413,0.0270,37.5021,-10.4842,140.5502,153.62,85.29,174.74,108.96,87.18,nothing
313618,-9.0749,-1.0313,-3.0647,0.2315,0.1685,-0.0886,-6.3816,-70.0203,108.8508,1000.00,1000.00,1000.00,1000.00,1000.00,-1.7742,5.8684,-7.4588,-0.1654,0.1055,-0.0153,37.4665,-10.5365,140.5660,173.37,94.97,161.33,92.13,78.50,nothing
313684,-9.3413,-1.2091,-3.0797,-0.0154,-0.0375,0.0342,-6.7007,-70.2671,108.4715,1000.00,1000.00,1000.00,1000.00,1000.00,-1.7065,5.8486,-7.4145,-0.1606,0.0720,-0.0045,37.5083,-10.3902,140.5782,163.49,85.29,121.08,86.52,82.84,nothing
313750,-9.0199,-1.1145,-3.1742,-0.0067,-0.0547,0.0836,-6.6748,-69.9088,108.8597,1000.00,1000.00,1000.00,1000.00,1000.00,-1.8155,5.8540,-7.4355,-0.2000,0.0960,0.0027,37.4596,-10.6252,140.5402,143.74,75.61,161.33,103.35,91.51,nothing
313816,-8.9642,-1.2139,-3.1856,-0.1598,-0.0547,-0.0127,-6.9719,-69.5461,109.1289,1000.00,1000.00,1000.00,1000.00,1000.00,-1.7496,5.8229,-7.4444,-0.1735,0.1062,0.0214,37.3734,-10.5566,140.6503,173.37,104.65,174.74,97.74,82.84,nothing
313882,-9.2180,-1.2588,-3.2119,-0.0613,0.1134,-0.1906,-7.1620,-69.5145,109.0874,1000.00,1000.00,1000.00,1000.00,1000.00,-1.7389,5.8163,-7.5121,-0.1699,0.1395,-0.0078,37.2004,-10.4641,140.8543,173.37,94.97,147.91,86.52,78.50,nothing
313948,-9.1282,-1.4910,-2.8881,-0.0893,-0.1085,0.0334,-8.0057,-69.9856,108.2184,1000.00,1000.00,1000.00,1000.00,1000.00,-1.7239,5.8612,-7.4259,-0.1868,0.0971,0.0020,37.3774,-10.3958,140.7049,153.62,65.93,134.49,103.35,91.51,nothing
314014,-9.2228,-1.2235,-3.1646,0.0937,0.0853,0.1224,-7.5764,-69.8992,108.5043,1000.00,1000.00,1000.00,1000.00,1000.00,-1.7275,5.8277,-7.4361,-0.1817,0.0890,-0.0105,37.3674,-10.3789,140.7209,153.62,94.97,188.16,103.35,87.18,nothing
314081,-8.8194,-1.4013,-3.1042,0.0044,0.0109,0.0224,-8.0424,-69.4024,108.8315,1000.00,1000.00,1000.00,1000.00,1000.00,-1.7137,5.8325,-7.4133,-0.1785,0.0748,-0.0278,37.4195,-10.3381,140.6844,173.37,94.97,147.91,92.13,74.16,nothing
314147,-8.9026,-1.2151,-3.2083,0.0068,0.4046,-0.2164,-7.6812,-69.1699,109.2398,1000.00,1000.00,1000.00,1000.00,1000.00,-1.7077,5.8301,-7.4654,-0.2050,0.0765,-0.0196,37.3504,-10.2790,140.7736,153.62,65.93,121.08,92.13,91.51,nothing
314213,-9.1031,-1.3528,-3.1455,0.0419,0.2848,-0.1232,-7.8395,-69.2801,109.0534,1000.00,1000.00,1000.00,1000.00,1000.00,-1.6796,5.8415,-7.4810,-0.1243,0.1070,0.0030,37.3268,-10.1569,140.8404,153.62,94.97,174.74,103.35,87.18,nothing
314279,-9.2186,-1.3007,-3.1233,-0.1374,-0.1543,0.0630,-7.7246,-69.5656,108.7975,1000.00,1000.00,1000.00,1000.00,1000.00,-1.7263,5.8666,-7.4564,-0.1476,0.0927,-0.0068,37.3988,-10.2346,140.7419,173.37,104.65,161.33,92.13,78.50,nothing
314345,-8.7852,-1.2133,-3.2969,0.0335,0.0093,0.0149,-7.5494,-68.8989,109.5838,1000.00,1000.00,1000.00,1000.00,1000.00,-1.7005,5.8319,-7.4600,-0.1933,0.1262,0.0237,37.3568,-10.2079,140.7927,163.49,85.29,121.08,86.52,82.84,nothing
314411,-8.9097,-1.4767,-3.2562,0.0532,0.2477,-0.1819,-8.1988,-68.5234,109.7067,1000.00,1000.00,1000.00,1000.00,1000.00,-1.7119,5.8325,-7.5049,-0.1667,0.0555,-0.0401,37.2538,-10.2090,140.8938,143.74,75.61,161.33,103.35,91.51,nothing
314477,-9.1162,-1.4144,-3.2245,-0.0607,-0.0065,0.0244,-8.2610,-68.7044,109.4843,1000.00,1000.00,1000.00,1000.00,1000.00,-1.6760,5.8792,-7.4091,-0.1400,0.0541,0.0003,37.4955,-10.1290,140.6842,173.37,104.65,174.74,108.96,82.84,nothing
314543,-9.0313,-1.3671,-3.0563,-0.1247,-0.1279,0.1052,-8.2109,-69.1807,108.9937,1000.00,1000.00,1000.00,1000.00,1000.00,-1.6503,5.8696,-7.4121,-0.1384,0.1047,-0.0110,37.5991,-10.0151,140.6221,163.49,85.29,147.91,80.91,78.50,nothing
314609,-8.9211,-1.1540,-3.1048,-0.0810,-0.2104,0.1145,-7.5928,-69.4118,109.0189,1000.00,1000.00,1000.00,1000.00,1000.00,-1.6712,5.8307,-7.4247,-0.2135,0.0852,-0.0135,37.5282,-10.0270,140.6877,143.74,65.93,147.91,103.35,91.51,nothing
314675,-9.0456,-1.3959,-3.1503,0.0424,-0.0079,-0.0660,-7.9438,-69.2812,109.0063,1000.00,1000.00,1000.00,1000.00,1000.00,-1.6970,5.8445,-7.4780,-0.1693,0.0694,0.0125,37.4209,-10.0822,140.7741,153.62,94.97,188.16,103.35,87.18,nothing
314741,-8.9882,-1.3701,-3.0551,0.0255,0.0339,-0.0568,-8.0780,-69.4255,108.7904,1000.00,1000.00,1000.00,1000.00,1000.00,-1.7155,5.7912,-7.4642,-0.2183,0.0900,0.0548,37.2580,-10.1870,140.8975,173.37,94.97,161.33,92.13,74.16,nothing
314807,-8.9193,-1.4246,-2.9743,-0.0387,-0.0007,-0.0037,-8.3456,-69.5691,108.5101,1000.00,1000.00,1000.00,1000.00,1000.00,-1.6975,5.8822,-7.4624,-0.1759,0.1033,0.0290,37.4023,-10.1581,140.7656,163.49,75.61,134.49,92.13,87.18,nothing
314873,-8.8936,-1.3175,-3.2065,0.1140,-0.0055,-0.0206,-8.1400,-69.1408,109.0692,1000.00,1000.00,1000.00,1000.00,1000.00,-1.7155,5.8498,-7.4696,-0.2050,0.0954,0.0503,37.3781,-10.2037,140.7733,143.74,85.29,174.74,108.96,87.18,nothing
314939,-9.1198,-1.4276,-3.2634,-0.0470,-0.0108,-0.0744,-8.2636,-68.9002,109.2722,1000.00,1000.00,1000.00,1000.00,1000.00,-1.6700,5.8451,-7.4169,-0.1444,0.1024,-0.0030,37.4659,-10.1165,140.7177,173.37,104.65,161.33,97.74,78.50,nothing
315005,-9.1360,-1.4084,-3.1066,-0.0004,-0.0322,-0.0018,-8.2841,-69.2153,108.9226,1000.00,1000.00,1000.00,1000.00,1000.00,-1.6946,5.8133,-7.4450,-0.1896,0.0847,0.0529,37.3751,-10.1435,140.7976,163.49,85.29,134.49,86.52,82.84,nothing
315071,-8.9492,-1.3821,-3.0665,-0.0281,-0.1374,-0.0924,-8.2980,-69.3077,108.8161,1000.00,1000.00,1000.00,1000.00,1000.00,-1.6796,5.8211,-7.4271,-0.1999,0.0679,0.0217,37.3859,-10.1180,140.7960,143.74,75.61,147.91,103.35,95.85,nothing
315138,-9.2425,-1.4120,-3.0761,0.1738,-0.0125,0.1776,-8.2728,-69.6006,108.5104,1000.00,1000.00,1000.00,1000.00,1000.00,-1.7059,5.8858,-7.4355,-0.1223,0.1114,-0.0038,37.5189,-10.1581,140.6507,173.37,114.33,174.74,97.74,82.84,nothing
315204,-9.0582,-1.2295,-2.9438,0.0097,0.0558,-0.0414,-7.8174,-70.0980,108.1833,1000.00,1000.00,1000.00,1000.00,1000.00,-1.6383,5.8893,-7.4079,-0.2214,0.0603,-0.0143,37.6697,-9.9898,140.5612,163.49,85.29,147.91,86.52,78.50,nothing
315270,-8.9391,-1.3408,-3.0743,-0.0986,0.1401,-0.2473,-7.9445,-69.7681,108.4816,1000.00,1000.00,1000.00,1000.00,1000.00,-1.6658,5.8193,-7.4367,-0.2184,0.0772,0.0196,37.5176,-9.9973,140.7086,143.74,65.93,147.91,103.35,91.51,nothing
315336,-8.9810,-1.6497,-3.0036,0.0848,-0.0086,-0.0281,-8.9133,-69.4609,108.3475,1000.00,1000.00,1000.00,1000.00,1000.00,-1.6892,5.8427,-7.4594,-0.1590,0.0994,-0.0026,37.4472,-10.0528,140.7585,153.62,94.97,188.16,103.35,87.18,nothing
315402,-9.1821,-1.3749,-3.0479,-0.0334,-0.0286,0.0526,-8.4974,-69.7307,108.2606,1000.00,1000.00,1000.00,1000.00,1000.00,-1.6772,5.8594,-7.4211,-0.1873,0.0930,0.0219,37.5242,-10.0556,140.6817,173.37,94.97,174.74,92.13,74.16,nothing
315468,-8.9103,-1.3821,-3.1545,0.0613,0.0072,0.0713,-8.4091,-69.3042,108.7676,1000.00,1000.00,1000.00,1000.00,1000.00,-1.6910,5.8343,-7.4558,-0.1524,0.1003,-0.0022,37.4363,-10.0913,140.7557,153.62,65.93,134.49,92.13,91.51,nothing
315534,-8.8487,-1.5437,-3.0611,-0.0669,0.1160,-0.1129,-8.8823,-69.0685,108.7936,1000.00,1000.00,1000.00,1000.00,1000.00,-1.6676,5.8696,-7.4349,-0.2061,0.0841,0.0120,37.5223,-10.0379,140.6898,143.74,85.29,174.74,108.96,87.18,nothing
315600,-8.9876,-1.6742,-3.1832,-0.0012,0.0529,-0.0517,-9.4243,-68.6296,108.9978,1000.00,1000.00,1000.00,1000.00,1000.00,-1.6964,5.8528,-7.4576,-0.2135,0.0567,0.0121,37.4739,-10.0915,140.7186,173.37,104.65,161.33,97.74,78.50,nothing
315666,-9.0085,-1.3965,-3.2042,-0.0183,-0.0102,0.0612,-8.8656,-68.7194,109.1831,1000.00,1000.00,1000.00,1000.00,1000.00,-1.6479,5.8385,-7.4768,-0.1554,0.0852,-0.0260,37.4013,-9.9730,140.8317,163.49,85.29,134.49,86.52,82.84,nothing
315732,-8.7655,-1.4533,-3.0976,-0.0536,0.0753,-0.0158,-8.8752,-68.6984,109.2013,1000.00,1000.00,1000.00,1000.00,1000.00,-1.6449,5.8457,-7.4331,-0.1963,0.0777,0.0116,37.4602,-9.9204,140.7919,133.86,75.61,161.33,103.35,91.51,nothing
315798,-9.1372,-1.4515,-3.0479,0.0108,0.1066,-0.1271,-8.7211,-69.2161,108.7124,1000.00,1000.00,1000.00,1000.00,1000.00,-1.6640,5.8804,-7.4468,-0.1909,0.0787,0.0211,37.5399,-9.9336,140.7088,163.49,104.65,174.74,97.74,82.84,nothing
315864,-8.8864,-1.4456,-3.2712,0.0395,-0.0885,0.0567,-8.7009,-68.6500,109.3384,1000.00,1000.00,1000.00,1000.00,1000.00,-1.6862,5.8534,-7.4432,-0.1875,0.0509,0.0044,37.5136,-10.0152,140.7062,163.49,94.97,147.91,86.52,78.50,nothing
315930,-8.7715,-1.6706,-3.1275,0.0744,-0.0112,-0.0192,-9.4302,-68.3317,109.3227,1000.00,1000.00,1000.00,1000.00,1000.00,-1.6946,5.8630,-7.4337,-0.1797,0.0971,-0.0123,37.5367,-10.0815,140.6603,143.74,65.93,147.91,103.35,91.51,nothing
315996,-8.7613,-1.5671,-3.2664,-0.0397,0.1277,-0.0485,-9.4722,-67.9346,109.7367,1000.00,1000.00,1000.00,1000.00,1000.00,-1.6784,5.8780,-7.4301,-0.1688,0.0878,-0.0014,37.5964,-10.0638,140.6077,153.62,94.97,188.16,103.35,87.18,nothing
316062,-9.0546,-1.5880,-3.1748,-0.0124,0.1196,-0.0519,-9.4346,-68.2676,109.3909,1000.00,1000.00,1000.00,1000.00,1000.00,-1.7035,5.8463,-7.4367,-0.1756,0.0717,-0.0101,37.5296,-10.1363,140.6480,173.37,94.97,161.33,92.13,74.16,nothing
316128,-9.0690,-1.5958,-3.2670,0.0926,-0.0282,-0.0123,-9.4171,-68.2100,109.4631,1000.00,1000.00,1000.00,1000.00,1000.00,-1.6293,5.8923,-7.4265,-0.1647,0.0350,-0.0109,37.6527,-9.9441,140.5939,153.62,75.61,134.49,92.13,91.51,nothing
316194,-8.6188,-1.6628,-3.0779,0.0229,-0.0770,0.1047,-9.8484,-68.0659,109.3950,1000.00,1000.00,1000.00,1000.00,1000.00,-1.7041,5.8331,-7.4965,-0.1767,0.0466,0.0098,37.4207,-10.0579,140.7829,133.86,85.29,174.74,108.96,91.51,nothing
316260,-8.8367,-1.2756,-3.1754,-0.1457,0.1181,-0.0176,-8.7933,-68.4695,109.4900,1000.00,1000.00,1000.00,1000.00,1000.00,-1.7011,5.8265,-7.4313,-0.1894,0.0777,0.0001,37.4054,-10.1349,140.7708,173.37,104.65,161.33,97.74,82.84,nothing
316326,-9.1587,-1.3001,-3.3478,-0.1630,-0.0593,-0.0305,-8.1828,-68.5386,109.6975,1000.00,1000.00,1000.00,1000.00,1000.00,-1.6640,5.8630,-7.4361,-0.1445,0.0793,0.0256,37.4906,-10.0508,140.7165,163.49,94.97,134.49,86.52,82.84,nothing
316392,-9.0486,-1.6317,-3.2107,-0.1162,-0.2358,-0.0484,-8.9169,-68.4292,109.4740,1000.00,1000.00,1000.00,1000.00,1000.00,-1.6730,5.8187,-7.4953,-0.2296,0.0798,0.0211,37.3202,-10.0250,140.8934,133.86,65.93,147.91,103.35,95.85,nothing
316458,-8.8158,-1.6999,-3.0539,-0.1326,0.0836,-0.2176,-9.6139,-68.4145,109.1351,1000.00,1000.00,1000.00,1000.00,1000.00,-1.6868,5.8235,-7.4708,-0.1741,0.0848,0.0018,37.2841,-10.0610,140.9163,163.49,104.65,174.74,103.35,82.84,nothing
316524,-8.9708,-1.7484,-3.2095,0.0733,0.0523,-0.0549,-10.0083,-68.1242,109.2434,1000.00,1000.00,1000.00,1000.00,1000.00,-1.7005,5.8642,-7.4247,-0.1915,0.0706,0.0038,37.4382,-10.1252,140.7419,163.49,94.97,147.91,86.52,78.50,nothing
316590,-9.0031,-1.4815,-3.2712,-0.1371,0.0593,0.0649,-9.3983,-68.1985,109.4854,1000.00,1000.00,1000.00,1000.00,1000.00,-1.6329,5.8660,-7.4193,-0.1100,0.1046,0.0029,37.5561,-9.9605,140.6835,153.62,65.93,134.49,97.74,91.51,nothing
316657,-8.8798,-1.7652,-3.3556,-0.0101,0.0499,-0.1054,-9.9662,-67.5408,109.9119,1000.00,1000.00,1000.00,1000.00,1000.00,-1.6473,5.9025,-7.4187,-0.1573,0.0657,-0.0273,37.6966,-9.9088,140.5628,153.62,94.97,188.16,103.35,87.18,nothing
316723,-9.0690,-1.7412,-3.3364,-0.0708,0.0862,-0.1251,-10.0914,-67.5015,109.8881,1000.00,1000.00,1000.00,1000.00,1000.00,-1.6646,5.8612,-7.4049,-0.1898,0.0887,0.0068,37.6870,-9.9526,140.5571,173.37,94.97,161.33,92.13,74.16,nothing
316789,-9.0600,-1.6880,-3.3616,0.0101,-0.0485,-0.0217,-9.9995,-67.4772,109.9643,1000.00,1000.00,1000.00,1000.00,1000.00,-1.6551,5.8612,-7.4361,-0.1865,0.0222,-0.0184,37.6306,-9.9338,140.6192,153.62,75.61,134.49,92.13,87.18,nothing
316855,-8.9038,-1.7341,-3.0976,0.0207,-0.0552,0.1277,-10.2094,-67.8701,109.4148,1000.00,1000.00,1000.00,1000.00,1000.00,-1.6521,5.8714,-7.4774,-0.1516,0.1051,0.0476,37.5544,-9.8958,140.7075,143.74,85.29,174.74,114.57,91.51,nothing
316921,-8.8241,-1.8388,-3.1922,0.0634,0.0436,0.0170,-10.6456,-67.6095,109.4585,1000.00,1000.00,1000.00,1000.00,1000.00,-1.7371,5.8935,-7.4295,-0.1819,0.0500,0.0127,37.6195,-10.1380,140.5587,173.37,104.65,161.33,97.74,82.84,nothing
316987,-8.9995,-1.5880,-3.3430,0.0226,0.1189,-0.1427,-10.0155,-67.6375,109.7789,1000.00,1000.00,1000.00,1000.00,1000.00,-1.6862,5.8690,-7.4181,-0.1966,0.0979,-0.0007,37.6347,-10.1228,140.5491,163.49,85.29,134.49,86.52,82.84,nothing
317053,-8.9983,-1.6940,-3.1946,-0.0341,0.0525,-0.0866,-10.0378,-67.8732,109.5058,1000.00,1000.00,1000.00,1000.00,1000.00,-1.5635,5.8582,-7.4456,-0.1716,0.1193,0.0170,37.6166,-9.7472,140.6971,133.86,75.61,161.33,103.35,95.85,nothing
317119,-8.7302,-1.8023,-3.3508,-0.0412,0.0042,0.0464,-10.4703,-67.1688,110.0494,1000.00,1000.00,1000.00,999.95,1000.00,-1.6179,5.8492,-7.4905,-0.1752,0.1031,-0.0284,37.4851,-9.7043,140.8414,163.49,104.65,174.74,97.74,82.84,nothing
317185,-9.0522,-1.7999,-3.2389,-0.0661,0.1693,-0.1305,-10.5379,-67.4575,109.6902,1000.00,1000.00,1000.00,1000.00,1000.00,-1.6916,5.8666,-7.4426,-0.1915,0.0832,-0.0188,37.5165,-9.9124,140.7392,163.49,94.97,147.91,86.52,74.16,nothing
317251,-8.9636,-1.7616,-3.2676,0.0673,0.0116,0.0657,-10.4996,-67.4805,109.6861,1000.00,1000.00,1000.00,1000.00,1000.00,-1.6503,5.8624,-7.4450,-0.1944,0.0894,0.0089,37.5342,-9.8957,140.7275,153.62,65.93,147.91,103.35,91.51,nothing
317317,-9.2186,-1.7245,-3.4334,0.4619,-0.4158,-0.0211,-10.2173,-67.4291,109.9000,1000.00,1000.00,1000.00,1000.00,1000.00,-1.6706,5.8301,-7.4756,-0.1746,0.0916,-0.0087,37.4047,-9.9450,140.8381,153.62,94.97,188.16,103.35,87.18,nothing
317383,-8.4925,-1.8550,-3.4286,0.2927,0.0592,-0.6232,-10.8188,-66.4142,110.6932,1000.00,1000.00,998.64,999.95,1000.00,-1.6515,5.8612,-7.4492,-0.2003,0.0489,0.0029,37.4675,-9.9142,140.7868,173.37,104.65,161.33,92.13,74.16,nothing
317449,-8.5877,-1.8915,-3.0348,-0.2375,0.0634,-0.5017,-11.2694,-66.9084,109.8798,976.50,1000.00,1000.00,1000.00,1000.00,-1.6748,5.8337,-7.4594,-0.1944,0.0706,0.0025,37.4067,-9.9719,140.8267,153.62,75.61,134.49,92.13,91.51,nothing
317515,-9.3479,-1.9699,-3.3179,-1.0073,1.0128,-2.0228,-11.2505,-67.2511,109.5037,788.85,941.32,1000.00,991.48,1000.00,-1.6664,5.8917,-7.4534,-0.1955,0.0975,0.0393,37.5274,-9.9601,140.7119,143.74,75.61,174.74,114.57,91.51,nothing
317581,-8.7236,-1.6646,-3.6387,-0.1040,0.8657,-0.2998,-10.6282,-66.3405,110.8797,708.43,273.67,1000.00,983.01,987.85,-1.6790,5.8020,-7.4726,-0.1945,0.0763,-0.0176,37.3367,-10.0119,140.8817,163.49,114.33,174.74,97.74,82.84,nothing
317647,-7.5701,-3.0024,-4.1780,-0.5375,0.6979,-0.9420,-14.7994,-61.2816,114.0157,740.60,13.78,1000.00,1000.00,1000.00,-1.7005,5.8187,-7.4648,-0.1509,0.0612,0.0221,37.2861,-10.0988,140.9010,163.49,85.29,147.91,86.52,82.84,nothing
317713,-8.3836,-2.6870,-4.3343,-0.3480,0.4183,-0.5161,-15.3616,-59.9555,115.1410,826.38,0.00,1000.00,991.48,983.61,-1.6826,5.9139,-7.4253,-0.1580,0.0855,0.0128,37.5627,-10.0752,140.6368,143.74,65.93,147.91,103.35,95.85,nothing
317779,-8.0268,-3.5621,-4.1415,-0.3081,-0.3478,0.2443,-18.4621,-57.9213,115.2355,831.74,0.00,1000.00,978.77,966.68,-1.6922,5.8552,-7.4187,-0.1764,0.0793,0.0277,37.5703,-10.1131,140.6160,163.49,104.65,201.58,108.96,91.51,nothing
317845,-7.1721,-3.0874,-4.2846,-0.3354,0.3521,-0.2650,-19.3480,-55.8628,116.9325,842.46,0.00,1000.00,983.01,979.38,-1.6359,5.8858,-7.4492,-0.2037,0.1121,0.0481,37.6145,-9.9447,140.6313,163.49,94.97,161.33,92.13,78.50,nothing
317911,-8.3184,-2.9462,-4.7395,-0.0121,0.3877,-0.0733,-18.1833,-56.0274,117.6161,837.10,0.00,1000.00,999.95,975.15,-1.6413,5.8959,-7.4115,-0.2180,0.0872,-0.0014,37.7253,-9.8884,140.5415,153.62,65.93,134.49,97.74,91.51,nothing
317978,-8.5991,-2.4093,-4.3558,-0.5345,-0.2802,0.2044,-16.0798,-58.0354,116.8181,863.91,0.00,1000.00,983.01,958.22,-1.6832,5.8690,-7.5043,-0.2168,0.0836,-0.0217,37.5362,-9.9542,140.7052,153.62,94.97,188.16,108.96,91.51,nothing
318044,-8.0107,-2.9611,-4.3600,-0.4292,-0.4536,0.4117,-17.0243,-57.3602,116.9346,863.91,0.00,1000.00,978.77,975.15,-1.6898,5.8504,-7.4714,-0.1794,0.0709,0.0027,37.4537,-10.0255,140.7617,173.37,104.65,161.33,92.13,78.50,nothing
318110,-7.7006,-2.8402,-4.3839,0.1192,0.2765,-0.0304,-17.3920,-56.6200,117.5106,869.27,0.00,1000.00,991.48,992.08,-1.6946,5.8624,-7.4247,-0.1292,0.1069,0.0559,37.5211,-10.0904,140.6725,153.62,75.61,134.49,92.13,91.51,nothing
318176,-8.0634,-2.8414,-4.4384,-0.1313,0.1369,-0.0961,-17.2731,-56.7270,117.4732,896.08,0.00,1000.00,983.01,970.92,-1.6664,5.8947,-7.4504,-0.1933,0.0579,0.0153,37.5968,-10.0195,140.6227,143.74,85.29,174.74,108.96,91.51,nothing
318242,-8.5045,-2.9719,-4.6222,0.1181,-0.0984,0.1585,-17.1678,-56.9351,117.3127,901.44,0.00,1000.00,970.30,962.45,-1.6712,5.8325,-7.4193,-0.1496,0.0856,-0.0004,37.5410,-10.0308,140.6738,173.37,104.65,161.33,97.74,82.84,nothing
318308,-8.0885,-2.8474,-4.3947,-0.0297,-0.2703,0.2643,-17.1778,-57.0072,117.2249,901.44,0.00,1000.00,987.25,979.38,-1.6616,5.8492,-7.4893,-0.2256,0.1084,0.0375,37.4325,-9.9745,140.8004,163.49,85.29,147.91,86.52,82.84,nothing
318374,-7.8832,-2.6840,-4.3331,-0.1457,0.0168,0.0536,-16.9009,-57.0611,117.3549,906.80,0.00,1000.00,983.01,975.15,-1.6694,5.8935,-7.4169,-0.2038,0.0693,0.0248,37.6079,-9.9844,140.6241,133.86,85.29,161.33,103.35,100.19,nothing
318440,-8.0412,-2.7002,-4.4163,-0.0052,0.0112,0.0105,-16.6506,-57.1462,117.4293,922.88,0.00,1000.00,966.07,953.99,-1.6269,5.8409,-7.4504,-0.1798,0.0823,0.0333,37.5287,-9.8679,140.7426,163.49,104.65,174.74,103.35,87.18,nothing
318506,-8.0681,-2.7361,-4.3253,-0.3963,-0.1221,-0.0743,-16.6457,-57.3787,117.1731,896.08,0.00,1000.00,970.30,975.15,-1.6108,5.8911,-7.4558,-0.1471,0.0983,0.0399,37.6044,-9.7442,140.7102,163.49,94.97,147.91,86.52,78.50,nothing
318572,-8.0089,-3.0042,-4.5162,-0.0819,-0.6312,0.3262,-17.3749,-56.6330,117.5079,874.63,0.00,1000.00,974.54,962.45,-1.6586,5.8714,-7.4175,-0.1468,0.0892,-0.0127,37.6449,-9.8443,140.6360,143.74,65.93,147.91,97.74,95.85,nothing
318638,-7.4420,-3.1521,-3.6052,-0.6127,-0.9100,0.5465,-19.0544,-56.9918,115.8552,826.38,45.15,936.79,936.41,903.20,-1.6646,5.8588,-7.4361,-0.1351,0.0866,0.0063,37.6002,-9.9086,140.6580,153.62,94.97,174.74,108.96,87.18,nothing
318704,-8.4752,-2.6852,-3.8494,0.1106,-0.6097,0.0483,-17.5424,-59.0603,114.6149,719.15,143.73,839.58,885.58,848.18,-1.6898,5.9109,-7.4001,-0.1243,0.0669,-0.0236,37.7544,-10.0123,140.4699,173.37,104.65,161.33,92.13,78.50,nothing
318770,-9.8100,-2.3757,-3.4615,0.6484,-0.1376,0.3877,-15.0842,-63.1832,111.6240,628.01,255.75,795.40,843.22,729.68,-1.6694,5.8738,-7.4798,-0.1892,0.1005,0.0011,37.6108,-9.9841,140.6213,153.62,75.61,134.49,92.13,87.18,nothing
318836,-8.6512,-1.4503,-2.7331,-1.0642,1.4478,-0.1497,-12.2268,-66.6346,109.5915,499.34,475.31,684.94,728.85,611.18,-1.6509,5.9097,-7.4109,-0.1830,0.0498,-0.0022,37.7531,-9.9320,140.4991,143.74,75.61,174.74,108.96,91.51,nothing
318902,-8.1316,-3.0886,-4.2343,1.3175,1.3105,-0.3046,-15.4674,-61.9083,112.8352,343.86,833.78,676.11,665.31,678.90,-1.6413,5.8864,-7.4055,-0.1975,0.0818,0.0101,37.7827,-9.8874,140.4852,163.49,104.65,174.74,97.74,82.84,nothing
318968,-8.6039,-2.3775,-4.8107,0.6921,-0.6182,0.7047,-14.5035,-59.9886,115.6554,338.50,1000.00,755.64,720.38,810.09,-1.6461,5.8648,-7.4606,-0.1686,0.0807,0.0128,37.6469,-9.8639,140.6273,163.49,85.29,134.49,86.52,82.84,nothing
319034,-7.7808,-1.7281,-4.5803,-0.3720,-1.7837,0.7874,-12.7405,-59.0286,117.7077,526.14,1000.00,857.26,868.64,953.99,-1.7137,5.8301,-7.4426,-0.1215,0.1144,0.0031,37.5022,-10.0689,140.6987,143.74,65.93,147.91,103.35,95.85,nothing
319100,-8.8038,-1.4521,-2.8684,-0.9362,-4.2139,2.7302,-10.8852,-64.4441,112.8216,703.07,1000.00,950.04,949.12,975.15,-1.7113,5.8427,-7.4588,-0.1355,0.0746,0.0564,37.4317,-10.1537,140.7383,153.62,94.97,188.16,103.35,87.18,nothing
319166,-9.9806,-0.8165,-2.0495,0.4063,-1.0484,1.2796,-7.6403,-71.2757,106.9890,890.71,1000.00,1000.00,987.25,1000.00,-1.6922,5.8361,-7.3762,-0.1470,0.0787,0.0053,37.5347,-10.1762,140.6288,163.49,94.97,147.91,92.13,78.50,nothing
319232,-9.9100,-0.0623,-1.4479,-0.0195,0.2714,0.3056,-3.9604,-76.7548,102.6187,1000.00,1000.00,1000.00,1000.00,1000.00,-1.6892,5.8864,-7.4534,-0.1714,0.0278,0.0326,37.5696,-10.1304,140.6107,153.62,65.93,134.49,97.74,91.51,nothing
319298,-9.4341,-0.9487,-2.1160,1.0214,0.0687,0.7540,-4.7774,-76.4959,102.6008,1000.00,1000.00,1000.00,1000.00,1000.00,-1.7245,5.9001,-7.4959,-0.1989,0.1007,0.0130,37.5301,-10.1889,140.6288,163.49,94.97,174.74,108.96,87.18,nothing
319364,-9.5981,-0.3418,-1.9579,-0.0383,0.1118,-0.1562,-3.3859,-77.4555,102.0645,1000.00,1000.00,998.64,1000.00,1000.00,-1.6551,5.8253,-7.4145,-0.1775,0.0781,0.0338,37.5056,-10.0727,140.6940,173.37,104.65,161.33,97.74,78.50,nothing
319430,-9.9052,-0.2849,-2.0178,-0.1022,0.3613,-0.2647,-2.4856,-77.9494,101.7839,1000.00,1000.00,998.64,1000.00,1000.00,-1.6760,5.8427,-7.3558,-0.1939,0.0852,0.0214,37.6301,-10.0942,140.5637,163.49,85.29,134.49,86.52,82.84,nothing
319496,-9.2785,-0.7817,-2.3093,0.0525,0.2628,-0.0877,-3.5607,-76.6597,102.8394,1000.00,1000.00,998.64,1000.00,1000.00,-1.6981,5.8379,-7.4821,-0.2019,0.0930,-0.0020,37.4480,-10.1198,140.7341,133.86,75.61,174.74,103.35,91.51,nothing
319562,-8.6889,-0.8542,-2.4925,0.0627,0.3844,-0.2379,-4.4475,-74.9656,104.3318,1000.00,1000.00,980.97,991.48,1000.00,-1.6958,5.8600,-7.4642,-0.1377,0.0878,-0.0188,37.4424,-10.1256,140.7376,163.49,114.33,174.74,103.35,82.84,nothing
319628,-9.6376,-0.3041,-2.3314,-0.0753,0.2409,-0.2890,-3.0672,-75.6970,103.9566,1000.00,1000.00,980.97,1000.00,1000.00,-1.6293,5.8840,-7.4486,-0.1531,0.0342,-0.0116,37.5500,-9.9326,140.6991,163.49,94.97,147.91,86.52,78.50,nothing
319694,-9.6723,-0.6255,-2.3099,-0.1183,0.0987,-0.1665,-3.3373,-75.9068,103.6765,1000.00,1000.00,994.23,1000.00,1000.00,-1.6317,5.8415,-7.4175,-0.2230,0.0763,-0.0052,37.5576,-9.8690,140.7136,143.74,65.93,147.91,103.35,91.51,nothing
319760,-8.9654,-0.7901,-2.5415,-0.0288,0.0215,-0.1039,-4.0743,-74.7222,104.6989,1000.00,1000.00,985.39,1000.00,1000.00,-1.7137,5.7876,-7.4815,-0.2108,0.0927,0.0273,37.2880,-10.0693,140.9096,153.62,104.65,188.16,103.35,87.18,nothing
319826,-9.0121,-0.8165,-2.6714,-0.0877,0.4563,-0.1719,-4.5164,-73.7589,105.5670,1000.00,1000.00,967.72,999.95,1000.00,-1.6946,5.8379,-7.4696,-0.1546,0.0907,-0.0678,37.3011,-10.1019,140.8852,163.49,94.97,161.33,92.13,74.16,nothing
319892,-9.6729,-0.6680,-2.6403,-0.1307,0.2187,-0.2198,-4.1542,-74.0268,105.3956,1000.00,1000.00,980.97,1000.00,1000.00,-1.6371,5.8564,-7.4444,-0.1707,0.1021,-0.0254,37.4186,-9.9540,140.8212,153.62,75.61,134.49,92.13,91.51,nothing
319958,-9.9129,-1.0954,-2.5858,0.0326,-0.1551,0.0586,-5.1542,-74.1409,104.9564,1000.00,1000.00,980.97,1000.00,1000.00,-1.6652,5.7990,-7.4468,-0.1615,0.1063,-0.0225,37.3259,-9.9798,140.9035,143.74,85.29,174.74,114.57,91.51,nothing
320024,-9.1127,-0.7374,-2.5876,-0.0041,0.0113,-0.0031,-4.8126,-73.8598,105.3685,1000.00,1000.00,972.13,983.01,1000.00,-1.6880,5.8175,-7.4510,-0.1838,0.0892,0.0095,37.3071,-10.0520,140.8968,173.37,104.65,161.33,97.74,82.84,nothing
320090,-9.0444,-0.7883,-2.6870,0.0109,0.1333,-0.0853,-4.7948,-73.3376,105.9190,1000.00,1000.00,976.55,999.95,1000.00,-1.7317,5.8480,-7.4259,-0.1880,0.0939,-0.0110,37.3969,-10.2169,140.7500,163.49,85.29,134.49,86.52,82.84,nothing
320156,-9.6256,-0.7548,-2.5858,-0.0462,0.3378,-0.3320,-4.5585,-73.8618,105.4472,1000.00,1000.00,985.39,991.48,1000.00,-1.6766,5.8445,-7.5001,-0.1804,0.0943,-0.0333,37.3245,-10.1082,140.8599,133.86,75.61,161.33,103.35,91.51,nothing
320222,-9.3180,-1.0565,-2.7175,0.0228,0.0754,-0.1610,-5.3835,-73.2575,105.8050,1000.00,1000.00,967.72,983.01,1000.00,-1.6712,5.9229,-7.4289,-0.1511,0.1102,-0.0022,37.6011,-10.0423,140.6106,163.49,104.65,174.74,103.35,82.84,nothing
320288,-9.2204,-1.2277,-2.6888,0.0170,-0.0551,0.0716,-6.3290,-72.7632,105.9652,1000.00,1000.00,958.88,983.01,1000.00,-1.6425,5.8181,-7.4307,-0.1247,0.0811,-0.0034,37.5004,-9.9578,140.7392,163.49,94.97,147.91,86.52,74.16,nothing
320354,-8.7954,-1.1630,-2.8851,0.0359,0.1456,-0.0848,-6.7375,-71.6666,106.9686,1000.00,1000.00,976.55,991.48,1000.00,-1.7251,5.8588,-7.4552,-0.2342,0.1025,0.0323,37.4699,-10.1348,140.7072,143.74,65.93,147.91,103.35,91.51,nothing
320420,-9.5598,-0.9607,-3.0946,0.1032,0.3151,-0.2649,-6.0812,-71.4798,107.4247,1000.00,1000.00,972.13,983.01,1000.00,-1.6311,5.8834,-7.4169,-0.1365,0.0654,-0.0309,37.6179,-9.9555,140.6243,153.62,94.97,188.16,103.35,87.18,nothing
320486,-9.1378,-1.4156,-2.8438,0.1129,-0.0033,0.0778,-7.2396,-71.1899,107.2647,1000.00,1000.00,954.46,974.54,1000.00,-1.6527,5.8486,-7.4750,-0.2360,0.0954,-0.0070,37.4984,-9.9165,140.7555,173.37,104.65,161.33,92.13,74.16,nothing
320552,-8.9271,-1.2217,-2.8588,0.0383,-0.0150,0.0889,-7.3312,-70.9975,107.4314,1000.00,1000.00,972.13,991.48,1000.00,-1.6551,5.8457,-7.4857,-0.1494,0.0687,0.0309,37.4117,-9.9007,140.8464,153.62,85.29,134.49,92.13,91.51,nothing
320618,-8.8930,-1.0894,-2.9270,0.0158,0.1159,0.0461,-6.9874,-70.8296,107.7590,1000.00,1000.00,972.13,987.25,1000.00,-1.6485,5.8139,-7.4690,-0.1527,0.0634,0.0185,37.3255,-9.8903,140.9350,133.86,85.29,174.74,108.96,91.51,nothing
320684,-9.1366,-0.9942,-2.9486,0.0421,0.1453,-0.0637,-6.4460,-71.0189,107.7742,1000.00,1000.00,958.88,970.30,1000.00,-1.7245,5.8247,-7.4798,-0.1902,0.1197,-0.0260,37.2590,-10.1001,140.9272,163.49,104.65,174.74,97.74,82.84,nothing
320750,-9.2731,-1.0451,-3.0916,-0.0157,0.2082,-0.0980,-6.2722,-70.8141,108.0558,1000.00,1000.00,963.30,987.25,1000.00,-1.6353,5.8756,-7.4570,-0.1637,0.1078,-0.0097,37.4213,-9.9367,140.8245,163.49,85.29,147.91,86.52,82.84,nothing
320816,-9.0797,-1.1439,-3.1569,0.0829,-0.0553,0.1395,-6.5290,-70.2606,108.5436,1000.00,1000.00,976.55,987.25,1000.00,-1.6305,5.7882,-7.5139,-0.1715,0.0823,0.0270,37.1973,-9.8456,141.0768,143.74,75.61,161.33,103.35,100.19,nothing
320882,-8.8529,-1.1355,-2.8959,-0.0882,-0.1945,0.2113,-6.7364,-70.4496,108.2645,1000.00,1000.00,963.30,970.30,1000.00,-1.6664,5.8427,-7.5390,-0.1884,0.1182,-0.0038,37.1564,-9.8781,141.1059,163.49,104.65,174.74,103.35,87.18,nothing
320948,-9.2683,-0.9930,-2.9551,-0.0034,0.2065,-0.2209,-6.2769,-70.9377,107.9238,1000.00,1000.00,950.04,974.54,1000.00,-1.7281,5.7750,-7.4810,-0.1478,0.0747,-0.0147,37.0532,-10.1195,141.1230,163.49,94.97,147.91,92.13,78.50,nothing
321014,-9.3970,-1.2295,-3.3089,0.0748,0.0709,0.0915,-6.6639,-70.1604,108.5984,1000.00,1000.00,963.30,991.48,1000.00,-1.6736,5.8732,-7.5055,-0.1911,0.1130,0.0063,37.2126,-10.0397,140.9942,153.62,65.93,147.91,97.74,91.51,nothing
321080,-9.6274,-0.9170,-3.6465,-0.3607,-0.3189,-0.2308,-5.8589,-69.4202,109.6555,1000.00,1000.00,958.88,970.30,1000.00,-1.6455,5.8313,-7.4594,-0.1467,0.1513,-0.0060,37.2850,-9.9495,140.9545,153.62,94.97,174.74,103.35,87.18,nothing
321146,-10.1751,-0.9667,-2.9420,-0.8572,-0.5103,-0.6503,-5.5311,-71.2958,107.8096,1000.00,1000.00,941.21,961.83,1000.00,-1.6628,5.8540,-7.4325,-0.2256,0.0560,0.0324,37.4158,-9.9589,140.8223,173.37,104.65,161.33,97.74,78.50,nothing
321212,-8.7667,-1.4725,-2.5870,-0.5212,-0.2645,-0.3217,-7.2404,-71.3696,107.0707,1000.00,1000.00,963.30,978.77,1000.00,-1.6329,5.7828,-7.5175,-0.1941,0.0405,0.0158,37.1744,-9.8639,141.0931,153.62,85.29,134.49,92.13,87.18,nothing
321278,-8.5374,-1.5718,-2.6636,-0.0907,0.0783,-0.2947,-8.5522,-70.7886,107.0696,1000.00,1000.00,963.30,974.54,1000.00,-1.6952,5.8798,-7.4714,-0.1831,0.0908,-0.0196,37.3402,-9.9869,140.8870,143.74,85.29,174.74,108.96,91.51,nothing
321344,-8.6302,-1.2983,-2.9043,0.0100,0.2607,-0.2380,-8.3368,-70.2889,107.7294,1000.00,1000.00,954.46,961.83,1000.00,-1.6383,5.7960,-7.4720,-0.2324,0.0924,-0.0446,37.2459,-9.9080,141.0074,163.49,133.68,174.74,97.74,82.84,nothing
321411,-8.6518,-1.5012,-3.1389,0.0435,0.1028,-0.1215,-8.8020,-69.1899,108.7010,1000.00,1000.00,954.46,978.77,1000.00,-1.6401,5.7948,-7.5294,-0.1693,0.0808,-0.0049,37.0941,-9.8509,141.1767,163.49,85.29,134.49,86.52,82.84,nothing
321477,-9.1121,-1.5760,-3.0617,0.0304,0.2022,-0.0781,-9.0622,-69.2473,108.5060,1000.00,1000.00,963.30,970.30,1000.00,-1.6287,5.8109,-7.4001,-0.1532,0.0778,-0.0221,37.2884,-9.8359,140.9904,133.86,75.61,161.33,103.35,95.85,nothing
321543,-8.8834,-1.7089,-3.0695,0.1767,0.0627,-0.0898,-9.6845,-68.8399,108.6255,1000.00,1000.00,954.46,961.83,1000.00,-1.6610,5.8457,-7.4492,-0.1659,0.0980,-0.0123,37.3690,-9.8928,140.8913,163.49,104.65,174.74,103.35,82.84,nothing
321609,-9.0516,-1.4360,-3.2197,-0.0956,0.1846,-0.1626,-9.0876,-68.7897,108.9956,1000.00,1000.00,945.62,961.83,1000.00,-1.6335,5.8690,-7.4253,-0.1651,0.0800,0.0179,37.5177,-9.8425,140.7621,163.49,94.97,147.91,86.52,78.50,nothing
321675,-8.9858,-1.6042,-3.1623,-0.1175,0.0064,-0.0519,-9.3237,-68.6280,109.0522,1000.00,1000.00,958.88,978.77,1000.00,-1.6916,5.8534,-7.3972,-0.1905,0.0770,-0.0267,37.5822,-10.0044,140.6424,143.74,65.93,147.91,97.74,91.51,nothing
321741,-9.3066,-1.5114,-3.1407,0.2237,-0.0791,0.0183,-9.0315,-69.0549,108.7333,1000.00,1000.00,950.04,966.07,1000.00,-1.6521,5.8157,-7.4839,-0.1530,0.0710,0.0138,37.3869,-9.9460,140.8552,153.62,104.65,188.16,103.35,87.18,nothing
321807,-8.7290,-1.4851,-2.9318,-0.2177,-0.1418,0.0507,-9.0950,-69.2084,108.5318,1000.00,1000.00,941.21,949.12,1000.00,-1.6820,5.8032,-7.5474,-0.1407,0.1032,-0.0064,37.1365,-9.9827,141.0891,173.37,104.65,161.33,97.74,74.16,nothing
321873,-9.0103,-1.7915,-3.1204,-0.1496,0.0514,-0.0853,-9.8737,-68.7250,108.6489,1000.00,1000.00,941.21,961.83,1000.00,-1.6269,5.8403,-7.4391,-0.1622,0.1190,-0.0213,37.3112,-9.8719,140.9555,153.62,85.29,134.49,92.13,87.18,nothing
321939,-9.0881,-1.7101,-3.0970,-0.1538,-0.0086,-0.0225,-9.9872,-68.7280,108.5818,1000.00,1000.00,950.04,961.83,1000.00,-1.6993,5.8391,-7.4301,-0.1731,0.1081,0.0015,37.3834,-10.0330,140.8283,133.86,85.29,174.74,108.96,91.51,nothing
322005,-9.1139,-1.3564,-3.2335,-0.1783,-0.1460,0.1067,-8.9820,-68.8673,108.9638,1000.00,1000.00,936.79,944.89,996.31,-1.6527,5.8618,-7.6551,-0.1648,0.0680,0.0019,37.0967,-9.8785,141.1646,163.49,114.33,174.74,97.74,82.84,nothing
322071,-9.1115,-1.5216,-3.2784,-0.3217,-0.2031,-0.1408,-8.9560,-68.6147,109.2527,1000.00,1000.00,936.79,949.12,1000.00,-1.6167,5.8067,-7.4851,-0.1974,0.0318,0.0350,37.1344,-9.7821,141.1605,163.49,94.97,147.91,86.52,82.84,nothing
322137,-8.8595,-1.4294,-3.3718,0.6114,-0.2639,-0.1320,-8.7678,-68.0869,109.9165,944.33,1000.00,950.04,957.59,1000.00,-1.7047,5.7984,-7.4750,-0.1667,0.1082,0.0521,37.1174,-9.9981,141.1025,143.74,65.93,147.91,103.35,95.85,nothing
322203,-8.6697,-0.9739,-2.7540,-0.6792,-0.7603,-0.0049,-7.4782,-69.7022,108.7572,703.07,1000.00,936.79,949.12,1000.00,-1.6844,5.9001,-7.4606,-0.1595,0.0763,0.0067,37.3828,-10.0203,140.8334,163.49,104.65,174.74,103.35,87.18,nothing
322269,-9.3228,-1.2217,-2.2800,-2.2197,0.2968,-2.3270,-7.3721,-72.1551,106.1578,156.21,1000.00,927.95,953.36,1000.00,-1.6814,5.8014,-7.4804,-0.2079,0.0643,0.0192,37.2484,-10.0460,140.9567,173.37,94.97,161.33,92.13,78.50,nothing
322335,-8.6164,-2.4027,-2.8564,-1.1634,0.0429,-1.0101,-11.0726,-69.5536,106.9659,0.00,1000.00,958.88,974.54,1000.00,-1.6916,5.8564,-7.4522,-0.1740,0.1198,0.0252,37.3569,-10.0826,140.8370,153.62,75.61,134.49,97.74,91.51,nothing
322401,-8.6667,-3.4741,-3.0491,-0.1092,0.5559,-1.2848,-15.9916,-65.8524,107.6027,0.00,1000.00,976.55,978.77,1000.00,-1.6694,5.8570,-7.4402,-0.2078,0.0661,-0.0010,37.4425,-10.0407,140.7674,153.62,94.97,174.74,103.35,87.18,nothing
322467,-8.5279,-3.1646,-3.0850,-0.2446,-0.0491,-0.2453,-17.6167,-64.2375,108.1773,0.00,1000.00,972.13,966.07,1000.00,-1.6018,5.8044,-7.4486,-0.1892,0.0841,0.0130,37.3725,-9.8344,140.9081,183.25,104.65,188.16,97.74,78.50,nothing
322533,-8.6134,-3.6818,-3.0545,-0.1172,-0.1570,0.1926,-19.8086,-62.6071,108.1314,0.00,1000.00,972.13,987.25,1000.00,-1.6317,5.6727,-7.4588,-0.1779,0.0710,-0.0191,36.9935,-9.8561,141.2739,163.49,85.29,134.49,92.13,82.84,nothing
322599,-8.4937,-2.9695,-3.1168,0.1943,0.0999,0.0259,-18.9983,-62.8752,108.6153,0.00,1000.00,980.97,974.54,1000.00,-1.6281,5.7625,-7.4582,-0.2031,0.1057,-0.0063,37.0205,-9.8284,141.2568,143.74,85.29,174.74,108.96,91.51,nothing
322665,-8.8978,-2.6523,-2.9468,0.0718,-0.0742,0.0902,-17.3902,-64.4501,108.1165,0.00,1000.00,963.30,961.83,1000.00,-1.7053,5.7834,-7.4037,-0.1686,0.0915,0.0424,37.1501,-10.0582,141.0493,173.37,114.33,174.74,97.74,82.84,nothing
322731,-9.2414,-2.6122,-2.9180,0.0652,0.2267,-0.0225,-16.2178,-65.7686,107.5020,0.00,1000.00,954.46,966.07,1000.00,-1.6233,5.8349,-7.4893,-0.1536,0.0836,0.0417,37.2185,-9.8798,141.0441,163.49,94.97,147.91,86.52,82.84,nothing
322798,-8.7439,-2.6445,-3.1281,0.0679,-0.0206,0.2965,-16.0592,-65.3441,108.1953,0.00,1000.00,976.55,974.54,1000.00,-1.6389,5.8492,-7.4696,-0.2003,0.1037,0.0080,37.3153,-9.8403,140.9623,143.74,75.61,161.33,103.35,95.85,nothing
322864,-8.8104,-2.8193,-3.1347,-0.0926,0.1141,-0.2472,-16.4186,-64.8857,108.4583,0.00,1000.00,967.72,957.59,1000.00,-1.6868,5.8379,-7.4798,-0.1061,0.0863,0.0431,37.3000,-9.9605,140.9358,173.37,104.65,174.74,103.35,82.84,nothing
322930,-8.8337,-2.8719,-3.0228,-0.0543,-0.0953,0.0222,-16.7585,-64.8117,108.2423,0.00,1000.00,958.88,957.59,1000.00,-1.6078,5.8858,-7.4750,-0.1425,0.0952,-0.0547,37.4448,-9.7759,140.8568,173.37,94.97,147.91,86.52,74.16,nothing
322996,-8.8756,-2.8725,-3.1066,0.0528,0.2372,0.0239,-16.8729,-64.6614,108.3306,0.00,1000.00,967.72,970.30,1000.00,-1.6556,5.7894,-7.4474,-0.1726,0.0751,-0.0620,37.3192,-9.8652,140.9500,153.62,65.93,147.91,97.74,91.51,nothing
323062,-8.5255,-2.5601,-3.3652,0.0583,0.0650,0.1107,-16.2519,-64.1739,109.5031,0.00,1000.00,967.72,961.83,1000.00,-1.6724,5.8510,-7.5001,-0.1701,0.0856,-0.0140,37.3029,-9.9185,140.9476,153.62,94.97,188.16,103.35,87.18,nothing
323128,-8.7631,-2.5948,-3.1916,0.1425,0.0510,-0.0106,-15.8996,-64.5156,109.3769,0.00,1000.00,954.46,940.65,1000.00,-1.6347,5.7960,-7.4738,-0.1929,0.0559,-0.0378,37.2254,-9.8624,141.0434,183.25,104.65,161.33,103.35,78.50,nothing
323194,-8.8259,-2.6146,-2.6708,0.0000,0.1659,-0.0577,-15.8714,-65.7958,107.7854,0.00,1000.00,954.46,966.07,1000.00,-1.7137,5.7738,-7.4851,-0.2000,0.0618,-0.0023,37.0830,-10.0687,141.1116,153.62,85.29,134.49,92.13,87.18,nothing
323260,-8.7888,-2.8043,-3.2071,0.0555,0.1400,0.1489,-16.2830,-64.9615,108.4834,0.00,1000.00,972.13,961.83,1000.00,-1.6521,5.8582,-7.4127,-0.1318,0.1035,-0.0345,37.3640,-9.9937,140.8612,143.74,85.29,174.74,108.96,91.51,nothing
323326,-8.2956,-2.5822,-3.6902,-0.0860,0.2808,-0.0878,-16.0951,-63.2913,110.7179,0.00,1000.00,954.46,953.36,1000.00,-1.7269,5.8576,-7.4780,-0.1839,0.0825,0.0128,37.3582,-10.1490,140.8123,173.37,114.33,174.74,103.35,82.84,nothing
323392,-8.7547,-2.6020,-3.4268,0.0210,0.1937,-0.1797,-15.7795,-63.5625,110.6417,0.00,1000.00,950.04,953.36,1000.00,-1.6479,5.8995,-7.3774,-0.1842,0.0446,-0.0128,37.6635,-10.0227,140.5559,163.49,104.65,147.91,86.52,82.84,nothing
323459,-8.8008,-2.6026,-3.2724,-0.0395,0.0012,-0.0676,-15.6360,-64.0783,110.1309,0.00,1000.00,967.72,970.30,1000.00,-1.6700,5.9091,-7.4702,-0.1585,0.0510,0.0196,37.6653,-9.9836,140.5677,143.74,85.29,161.33,103.35,95.85,nothing
323525,-8.6984,-2.6541,-3.3215,0.0453,-0.0639,0.2547,-15.7728,-64.0153,110.0973,0.00,1000.00,963.30,957.59,1000.00,-1.6610,5.8570,-7.4396,-0.1900,0.1032,0.0341,37.6012,-9.9668,140.6367,163.49,114.33,174.74,103.35,82.84,nothing
323591,-8.5835,-2.4565,-3.4382,-0.0094,0.2018,-0.1466,-15.3288,-63.9098,110.5768,0.00,1000.00,950.04,944.89,1000.00,-1.6772,5.8552,-7.4199,-0.2737,0.0194,0.0210,37.5935,-10.0144,140.6278,163.49,94.97,147.91,86.52,82.84,nothing
323657,-8.6248,-2.6014,-3.4412,-0.0972,0.2863,-0.2883,-15.4895,-63.6684,110.7418,0.00,1000.00,958.88,961.83,1000.00,-1.6628,5.8929,-7.5372,-0.1805,0.0874,-0.0083,37.4768,-9.9366,140.7698,153.62,65.93,147.91,103.35,91.51,nothing
323723,-8.9295,-2.8851,-3.4472,0.0038,0.0893,-0.1054,-16.1436,-63.4774,110.4522,0.73,1000.00,963.30,957.59,1000.00,-1.7155,5.8516,-7.4247,-0.1735,0.0953,-0.0376,37.4989,-10.1106,140.6872,153.62,104.65,188.16,103.35,87.18,nothing
323789,-8.5386,-2.9444,-3.6052,0.1358,-0.1831,0.1584,-16.8817,-62.4457,111.1052,6.10,1000.00,954.46,940.65,1000.00,-1.6179,5.8941,-7.4301,-0.1759,0.0571,-0.0139,37.6396,-9.8961,140.6235,173.37,104.65,161.33,92.13,78.50,nothing
323855,-8.3369,-2.6427,-3.4591,-0.1039,0.1620,-0.1247,-16.6059,-62.4394,111.3383,0.73,1000.00,954.46,957.59,1000.00,-1.6766,5.8702,-7.4917,-0.1761,0.0817,-0.0259,37.5211,-9.9434,140.7238,153.62,85.29,134.49,92.13,91.51,nothing
323921,-8.7134,-2.8881,-3.5926,-0.0300,0.1265,-0.1720,-16.8243,-62.2780,111.3566,0.73,1000.00,967.72,957.59,1000.00,-1.6574,5.8367,-7.4786,-0.2273,0.1290,0.0087,37.4137,-9.9269,140.8354,143.74,85.29,174.74,114.57,91.51,nothing
323987,-8.4291,-3.0120,-3.6932,0.1489,0.1097,0.0245,-17.4735,-61.3996,111.8895,6.10,1000.00,954.46,949.12,1000.00,-1.6335,5.9055,-7.4516,-0.1645,0.0592,-0.0236,37.5793,-9.8377,140.7030,173.37,114.33,174.74,97.74,82.84,nothing
324053,-8.4375,-3.0108,-3.5238,0.1786,-0.0307,0.1376,-17.8481,-61.3122,111.6819,0.73,1000.00,945.62,953.36,1000.00,-1.6467,5.8780,-7.4277,-0.2200,0.1076,0.0251,37.6344,-9.8498,140.6444,163.49,94.97,147.91,86.52,82.84,nothing
324119,-8.4458,-2.5637,-3.4550,-0.1302,0.0210,0.0195,-16.7809,-62.1597,111.5352,0.00,1000.00,963.30,966.07,1000.00,-1.7071,5.7768,-7.4600,-0.1838,0.0849,-0.0097,37.3419,-10.0524,140.8624,143.74,75.61,161.33,108.96,95.85,nothing
324185,-8.5925,-3.0234,-3.6848,0.1177,0.1006,-0.0251,-17.3584,-61.5644,111.7845,6.10,1000.00,958.88,953.36,1000.00,-1.7185,5.7888,-7.4857,-0.1382,0.0728,-0.0213,37.1736,-10.1728,140.9856,163.49,104.65,174.74,103.35,87.18,nothing
324251,-8.7715,-2.7247,-3.4562,0.1059,0.0443,-0.0185,-16.7365,-62.4654,111.2007,0.73,1000.00,950.04,940.65,1000.00,-1.6568,5.8241,-7.4546,-0.1735,0.0720,0.0037,37.2526,-10.0535,140.9500,173.37,94.97,147.91,86.52,74.16,nothing
324317,-8.5470,-2.6960,-3.4322,0.0023,0.0011,0.0164,-16.5276,-62.7055,111.0792,0.00,1000.00,954.46,957.59,1000.00,-1.6718,5.8044,-7.4630,-0.1765,0.0785,0.0098,37.2245,-10.0407,140.9821,153.62,75.61,147.91,97.74,91.51,nothing
324383,-8.4464,-2.5547,-3.4675,0.0266,0.0743,0.0574,-16.0842,-62.8458,111.2645,0.73,1000.00,958.88,953.36,1000.00,-1.6886,5.8463,-7.4235,-0.1538,0.0523,0.0259,37.3729,-10.0863,140.8199,153.62,104.65,188.16,103.35,87.18,nothing
324449,-8.4638,-2.7151,-3.5872,-0.1381,0.2056,-0.2209,-16.2700,-62.4264,111.6215,6.10,1000.00,950.04,940.65,1000.00,-1.7065,5.8211,-7.5001,-0.1797,0.0938,0.0361,37.2453,-10.1383,140.9273,183.25,104.65,161.33,97.74,74.16,nothing
324515,-8.6099,-2.8462,-3.5920,0.0100,0.1148,-0.1741,-16.6213,-62.1994,111.6158,0.00,1000.00,945.62,953.36,1000.00,-1.6545,5.7786,-7.4265,-0.1918,0.1181,-0.0128,37.2309,-10.0554,140.9707,153.62,85.29,147.91,92.13,91.51,nothing
324581,-8.4656,-2.7642,-3.6770,0.0155,0.0345,0.0491,-16.6473,-61.8413,112.0250,0.73,1000.00,958.88,953.36,1000.00,-1.6473,5.8433,-7.4456,-0.0853,0.0862,0.0023,37.3464,-9.9641,140.8889,143.74,85.29,174.74,108.96,91.51,nothing
324647,-8.4836,-2.9701,-3.6513,-0.1065,0.0627,-0.0303,-17.2387,-61.4114,112.0678,11.46,1000.00,950.04,953.36,1000.00,-1.6574,5.8127,-7.4708,-0.1956,0.0937,0.0733,37.2832,-9.9480,140.9567,173.37,114.33,174.74,97.74,82.84,nothing
324713,-8.5482,-2.8253,-3.5394,0.0583,0.1626,-0.0249,-17.1101,-61.7488,111.7647,6.10,1000.00,936.79,944.89,1000.00,-1.6574,5.8157,-7.4325,-0.1490,0.0502,0.0327,37.3263,-9.9545,140.9120,163.49,94.97,147.91,86.52,82.84,nothing
324779,-8.6733,-2.7026,-3.6902,0.1099,0.0552,0.1666,-16.5507,-61.9776,111.9381,16.82,1000.00,958.88,961.83,1000.00,-1.6371,5.8935,-7.4881,-0.1850,0.1141,0.0121,37.4418,-9.8509,140.8340,133.86,65.93,147.91,103.35,95.85,nothing
324845,-8.3160,-2.6253,-3.6980,-0.0772,0.0239,-0.0455,-16.3246,-61.6933,112.4517,6.10,1000.00,954.46,953.36,1000.00,-1.6509,5.8199,-7.4606,-0.2563,0.0828,0.0230,37.3686,-9.8738,140.8983,163.49,104.65,174.74,103.35,87.18,nothing
324911,-8.4788,-2.8707,-3.7141,-0.0622,0.0860,-0.0592,-16.7795,-61.3613,112.4939,6.10,1000.00,941.21,940.65,1000.00,-1.6443,5.8660,-7.5294,-0.1219,0.0747,-0.0184,37.3222,-9.8239,140.9612,163.49,104.65,161.33,92.13,78.50,nothing
324977,-8.4411,-2.8666,-3.7099,0.0686,0.1468,0.0303,-17.0250,-61.1565,112.5450,0.00,1000.00,945.62,974.54,1000.00,-1.6353,5.8385,-7.5151,-0.1213,0.1138,-0.0123,37.2628,-9.7872,141.0323,153.62,65.93,134.49,97.74,91.51,nothing
325043,-8.4458,-2.9707,-3.7327,0.0173,0.0067,0.0067,-17.4304,-60.8490,112.5893,6.10,1000.00,958.88,957.59,1000.00,-1.6850,5.9133,-7.5157,-0.2386,0.0911,0.0327,37.3893,-9.8903,140.8722,153.62,94.97,174.74,108.96,91.51,nothing
325109,-8.4800,-3.0449,-3.8327,-0.0939,0.2106,-0.1869,-17.7767,-60.4246,112.8183,11.46,1000.00,945.62,944.89,1000.00,-1.6497,5.8349,-7.5258,-0.1526,0.1264,0.0119,37.2637,-9.8592,141.0067,173.37,104.65,161.33,97.74,78.50,nothing
325175,-8.2842,-3.2048,-3.8285,0.0029,0.0023,-0.0010,-18.5610,-59.6792,113.0693,6.10,1000.00,936.79,949.12,1000.00,-1.7269,5.8510,-7.4654,-0.1401,0.0620,0.0011,37.3147,-10.0884,140.8766,153.62,85.29,134.49,92.13,87.18,nothing
325241,-8.3704,-2.9504,-3.7644,0.0309,0.0180,0.0042,-18.1920,-59.9679,113.0275,6.10,1000.00,954.46,961.83,1000.00,-1.6539,5.8672,-7.4732,-0.1821,0.0927,-0.0104,37.3934,-9.9815,140.8365,133.86,85.29,174.74,108.96,91.51,nothing
325307,-8.5482,-2.8025,-3.7806,0.0145,0.0187,0.0556,-17.4380,-60.5735,112.9129,16.82,1000.00,945.62,949.12,1000.00,-1.6413,5.8911,-7.4205,-0.2251,0.0874,0.0104,37.5872,-9.9048,140.6721,163.49,114.33,174.74,103.35,82.84,nothing
325373,-8.4033,-2.7911,-3.9123,0.0106,-0.0553,0.1243,-17.0989,-60.4085,113.3745,11.46,1000.00,936.79,949.12,1000.00,-1.7053,5.8522,-7.4420,-0.2373,0.0932,-0.0189,37.5290,-10.0578,140.6762,163.49,94.97,147.91,86.52,82.84,nothing
325439,-8.3597,-2.8917,-3.7758,-0.0240,0.0329,0.0503,-17.2973,-60.3871,113.2456,6.10,1000.00,958.88,961.83,1000.00,-1.6724,5.7810,-7.4702,-0.2622,0.0765,0.0279,37.2947,-10.0492,140.9100,143.74,75.61,147.91,114.57,91.51,nothing
325505,-8.4488,-2.8725,-3.6842,-0.1489,0.0751,-0.0920,-17.3040,-60.7243,112.8395,22.18,1000.00,954.46,949.12,1000.00,-1.6844,5.8014,-7.5025,-0.1167,0.0778,-0.0116,37.1640,-10.0601,141.0349,153.62,104.65,201.58,103.35,87.18,nothing
325571,-8.5512,-2.8696,-3.8075,-0.0464,0.1162,-0.0693,-17.1727,-60.7918,112.8629,16.82,1000.00,941.21,936.41,1000.00,-1.5904,5.8277,-7.4157,-0.1565,0.0552,-0.0169,37.3509,-9.8166,140.9354,163.49,104.65,161.33,92.13,74.16,nothing
325637,-8.3704,-2.7654,-3.8339,-0.1268,0.0380,-0.1077,-16.9472,-60.6709,113.1820,11.46,1000.00,936.79,957.59,1000.00,-1.5994,5.8385,-7.4624,-0.1774,0.0774,-0.0161,37.3838,-9.6988,140.9432,153.62,75.61,134.49,92.13,100.19,nothing
325703,-8.2962,-3.1257,-3.8434,-0.0598,0.1392,-0.0995,-17.9104,-59.9204,113.3136,22.18,1000.00,958.88,957.59,1000.00,-1.6646,5.8648,-7.4546,-0.1433,0.0991,-0.0089,37.4511,-9.8266,140.8332,143.74,94.97,174.74,108.96,91.51,nothing
325769,-8.4291,-2.8707,-4.0021,-0.0211,0.1911,-0.0248,-17.5041,-59.8152,113.7601,38.26,1000.00,941.21,944.89,992.08,-1.6096,5.8858,-7.4456,-0.1963,0.0919,-0.0068,37.5714,-9.7258,140.7490,173.37,104.65,174.74,97.74,78.50,nothing
325835,-8.3309,-2.8510,-4.0763,-0.0777,0.0589,-0.0453,-17.2964,-59.4901,114.3004,27.54,1000.00,932.37,949.12,1000.00,-1.7239,5.8457,-7.4708,-0.1268,0.0825,-0.0232,37.4476,-10.0132,140.7720,153.62,85.29,134.49,86.52,82.84,nothing
325901,-8.4255,-2.8803,-3.9703,-0.0927,-0.0089,-0.0184,-17.2401,-59.6420,114.1658,27.54,1000.00,967.72,957.59,1000.00,-1.6886,5.8570,-7.4205,-0.1388,0.0713,-0.0259,37.5152,-10.0702,140.6854,133.86,85.29,174.74,108.96,95.85,nothing
325967,-8.1831,-3.0024,-4.0595,0.0181,0.0082,0.1059,-17.7154,-58.9873,114.5681,38.26,1000.00,941.21,940.65,1000.00,-1.6527,5.8522,-7.4289,-0.1941,0.0815,-0.0125,37.5372,-9.9914,140.6913,163.49,114.33,174.74,103.35,82.84,nothing
326033,-8.3219,-2.8719,-3.8967,0.0164,0.0329,-0.0330,-17.5365,-59.3999,114.2228,32.90,1000.00,923.53,932.18,1000.00,-1.7041,5.8786,-7.4833,-0.1741,0.1343,-0.0465,37.4936,-10.0723,140.7060,163.49,94.97,147.91,86.52,78.50,nothing
326099,-8.4063,-2.7606,-3.9129,0.1879,0.1117,0.0479,-17.0576,-59.8677,114.0404,22.18,1000.00,941.21,953.36,1000.00,-1.7209,5.8421,-7.4756,-0.1804,0.1054,-0.0226,37.3927,-10.1766,140.7685,143.74,75.61,147.91,103.35,95.85,nothing
326166,-8.4081,-2.7840,-3.9021,0.0695,0.0532,0.0618,-16.8872,-60.0906,113.9085,38.26,1000.00,941.21,949.12,1000.00,-1.6449,5.8660,-7.5121,-0.1948,0.0776,0.0278,37.3648,-9.9838,140.8638,163.49,104.65,174.74,103.35,87.18,nothing
326232,-8.2441,-2.9917,-4.1355,-0.0759,-0.0045,-0.0604,-17.4314,-59.1626,114.5798,38.26,1000.00,932.37,936.41,996.31,-1.6533,5.8876,-7.4235,-0.0957,0.1046,0.0143,37.5544,-9.9410,140.6919,163.49,104.65,161.33,92.13,78.50,nothing
326298,-8.2782,-3.0192,-4.0386,0.0128,-0.0870,-0.0538,-17.7902,-58.9091,114.6020,27.54,1000.00,936.79,953.36,1000.00,-1.6832,5.8684,-7.4804,-0.1517,0.0739,-0.0154,37.4918,-9.9903,140.7364,153.62,75.61,134.49,97.74,91.51,nothing
326364,-8.5117,-2.9611,-3.8440,0.0172,0.0937,-0.0038,-17.6920,-59.6170,113.8470,32.90,1000.00,945.62,957.59,1000.00,-1.5467,5.8810,-7.5007,-0.1992,0.1155,0.0176,37.5072,-9.6036,140.8536,163.49,94.97,174.74,108.96,87.18,nothing
326430,-8.4225,-2.7008,-3.9440,0.0279,-0.0800,0.2095,-16.9448,-60.0251,113.9416,54.35,1000.00,936.79,936.41,987.85,-1.6527,5.7822,-7.4845,-0.1823,0.1007,0.0304,37.2694,-9.7573,141.0360,173.37,104.65,161.33,97.74,78.50,nothing
326496,-8.2016,-2.5888,-4.0212,1.6767,0.2716,0.4339,-16.3911,-59.8986,114.4947,43.63,1000.00,932.37,944.89,1000.00,-1.6515,5.8522,-7.5025,-0.1530,0.1162,0.0134,37.2849,-9.8019,141.0055,153.62,85.29,134.49,92.13,82.84,nothing
326562,-9.4508,-2.5493,-3.9991,-0.3434,0.9171,-0.7341,-15.1162,-61.7113,113.3106,11.46,659.03,989.81,961.83,983.61,-1.6640,5.7625,-7.4385,-0.2024,0.0787,-0.0113,37.1875,-9.9149,141.0624,133.86,85.29,174.74,108.96,91.51,nothing
326628,-7.3505,-2.5517,-4.2852,-0.8268,0.7584,-0.9577,-15.8762,-58.9694,115.9077,0.73,0.00,1000.00,944.89,953.99,-1.6054,5.9067,-7.4001,-0.2015,0.0881,-0.0146,37.5718,-9.7691,140.7338,163.49,114.33,174.74,103.35,87.18,nothing
326694,-7.6845,-2.6343,-4.6156,-0.2049,-0.2189,-0.0390,-16.1340,-57.1689,117.7449,0.00,0.00,1000.00,927.94,953.99,-1.6844,5.8421,-7.4684,-0.1695,0.0858,0.0089,37.4590,-9.9213,140.7927,163.49,94.97,147.91,86.52,82.84,nothing
326760,-7.8030,-3.7800,-4.4097,-0.0299,-0.2825,0.0293,-19.5582,-55.3181,117.3953,0.00,0.00,1000.00,953.36,966.68,-1.7035,5.7762,-7.4780,-0.1860,0.1314,0.0249,37.2222,-10.0706,140.9740,143.74,75.61,147.91,103.35,95.85,nothing
326826,-8.2723,-3.2071,-4.2965,-0.1275,-0.1258,0.1617,-19.2698,-56.1991,116.6058,0.00,0.00,1000.00,936.41,941.29,-1.6179,5.8630,-7.4019,-0.1671,0.1236,-0.0061,37.4776,-9.8970,140.7829,153.62,104.65,188.16,103.35,87.18,nothing
326892,-7.9454,-3.3281,-4.5060,0.1152,0.1558,-0.0348,-19.6459,-55.5062,117.1112,0.00,0.00,1000.00,923.71,932.83,-1.6263,5.8343,-7.4702,-0.2328,0.1006,-0.0311,37.4130,-9.8164,140.8743,173.37,104.65,161.33,92.13,78.50,nothing
326958,-8.3543,-3.2083,-4.5102,-0.0777,0.0480,-0.1013,-19.1515,-55.9989,116.9277,0.00,0.00,1000.00,936.41,953.99,-1.6658,5.8594,-7.4528,-0.1707,0.0826,-0.0341,37.4555,-9.8912,140.8065,153.62,75.61,134.49,92.13,91.51,nothing
327024,-8.0257,-3.0773,-4.3570,-0.0872,-0.1641,0.1615,-18.8901,-56.1929,116.9047,0.00,0.00,1000.00,940.65,962.45,-1.6604,5.8349,-7.4911,-0.1648,0.1288,-0.0042,37.3532,-9.9051,140.9026,143.74,94.97,174.74,108.96,91.51,nothing
327090,-7.9413,-3.2580,-4.4905,-0.0551,-0.1400,0.0465,-19.2708,-55.6290,117.2602,0.00,0.00,1000.00,927.94,932.83,-1.6652,5.7948,-7.5043,-0.1944,0.1014,-0.0464,37.1821,-9.9333,141.0614,173.37,104.65,161.33,97.74,78.50,nothing
327156,-7.9466,-3.0150,-4.3444,-0.1982,0.1659,-0.0331,-18.8458,-55.9913,117.1687,0.00,0.00,1000.00,927.94,945.52,-1.7137,5.7984,-7.4648,-0.1542,0.0658,-0.0416,37.1554,-10.1046,141.0277,153.62,85.29,134.49,86.52,82.84,nothing
327222,-8.1867,-3.0144,-4.4492,-0.0394,0.0323,-0.0778,-18.3828,-56.3584,117.0954,0.00,0.00,1000.00,949.12,949.76,-1.6580,5.8223,-7.4618,-0.1707,0.0729,-0.0513,37.2260,-10.0206,140.9877,133.86,75.61,174.74,108.96,95.85,nothing
