timestamp_ms,motion_detected,roll_deg,pitch_deg,yaw_deg,filtered_accel_x_(m/s²),filtered_accel_y_(m/s²),filtered_accel_z_(m/s²),filtered_gyro_x_(rad/s),filtered_gyro_y_(rad/s),filtered_gyro_z_(rad/s),accel_magnitude,gyro_magnitude,adc0,adc1,adc2,adc3,adc4,Label
24878,0,1.645825,-0.339998,0.000000,0.005832,0.028226,0.982339,-0.324456,0.321475,-0.157242,9.827621,4.830561,833,840,862,898,874,normal
24905,0,1.712330,-0.464993,0.005518,0.015151,0.055784,1.865966,-0.644592,0.556115,0.204365,9.823804,5.613591,833,840,863,898,874,normal
24932,0,1.776976,-0.744087,0.006702,0.034551,0.082502,2.659075,-0.804589,0.823541,0.043874,9.804610,4.175514,833,840,858,894,873,normal
24959,0,1.883953,-0.829099,0.014618,0.048899,0.111097,3.377183,-0.798586,0.962662,0.293182,9.848659,3.449003,832,840,862,898,874,normal
24986,0,1.907530,-0.825511,0.023783,0.057982,0.133960,4.021804,-0.591621,0.951933,0.339434,9.830259,1.708319,833,840,863,898,874,normal
25013,0,1.887955,-0.838312,0.020192,0.067353,0.151663,4.600526,-0.438166,0.564152,-0.133002,9.815129,5.355130,833,840,862,898,874,normal
25040,0,1.775970,-0.804954,0.022375,0.071956,0.158737,5.118982,-0.029743,0.397962,0.080869,9.788269,4.303681,828,837,862,898,874,normal
25067,0,1.827657,-0.772703,0.025031,0.075381,0.178272,5.586310,0.305025,0.359328,0.098352,9.799243,3.327796,833,840,862,898,874,normal
25094,0,1.791319,-0.708919,0.019421,0.074393,0.187953,6.009300,0.693817,0.205808,-0.207788,9.820283,5.267167,833,840,862,898,874,normal
25121,0,1.819610,-0.649762,0.009788,0.072546,0.203130,6.393582,0.910916,0.073890,-0.356751,9.858139,3.511125,832,840,862,898,874,normal
25148,0,1.752102,-0.579694,-0.006670,0.068250,0.206254,6.742310,1.093806,-0.002649,-0.609568,9.883680,4.038257,829,836,859,894,870,normal
25175,0,1.728472,-0.524591,-0.019906,0.064623,0.212897,7.054728,0.975594,-0.221534,-0.490229,9.870311,2.269654,829,836,859,894,870,normal
25202,0,1.691607,-0.501294,-0.034503,0.064232,0.216721,7.338058,0.991078,-0.366969,-0.540635,9.891415,2.252792,829,837,859,895,871,normal
25229,0,1.617250,-0.488985,-0.041086,0.064838,0.214416,7.594014,1.026889,-0.279109,-0.243814,9.899760,2.824040,829,837,859,895,871,normal
25256,0,1.541498,-0.512239,-0.056741,0.069932,0.210426,7.819107,0.985681,-0.182848,-0.579800,9.847169,3.719088,829,837,859,895,871,normal
25283,0,1.504381,-0.530970,-0.065288,0.074277,0.210427,8.012113,1.139220,-0.119651,-0.316562,9.752101,3.281851,830,837,859,895,871,normal
25310,0,1.478363,-0.535659,-0.073218,0.076512,0.211145,8.181030,1.403966,-0.376836,-0.293710,9.704206,4.646604,829,837,859,895,871,normal
25337,0,1.449293,-0.524321,-0.073379,0.076369,0.211074,8.342393,1.589113,-0.766115,-0.005957,9.797211,5.958501,829,837,859,894,870,normal
25364,0,1.476621,-0.491064,-0.070091,0.072888,0.219150,8.501267,1.890121,-0.838341,0.121772,9.935511,4.998406,829,837,859,895,871,normal
25391,0,1.527987,-0.382623,-0.074331,0.057783,0.230729,8.649522,1.901652,-0.958032,-0.157022,9.989734,3.908004,829,837,859,895,871,normal
25418,0,1.549233,-0.291269,-0.080494,0.044668,0.237558,8.783429,1.594843,-0.931379,-0.228250,9.993343,1.610722,829,837,859,894,871,normal
25445,0,1.553244,-0.208432,-0.092817,0.032386,0.241310,8.899158,1.178090,-0.507391,-0.456417,9.944826,4.885140,829,836,859,894,871,normal
25472,0,1.520186,-0.224264,-0.107985,0.035218,0.238701,8.994453,0.742075,0.014823,-0.561768,9.854663,5.885087,829,836,859,894,871,normal
25499,0,1.501819,-0.297473,-0.125333,0.047105,0.237789,9.069686,0.404349,0.269191,-0.642520,9.750697,3.919835,829,836,859,895,871,normal
25526,0,1.456263,-0.364017,-0.141774,0.058043,0.232181,9.132846,0.278520,0.332497,-0.608948,9.704248,1.279605,829,837,859,895,871,normal
25553,0,1.442986,-0.430682,-0.149258,0.069084,0.231442,9.187534,0.452774,0.083222,-0.277170,9.683812,4.011125,829,836,859,895,871,normal
25580,0,1.408097,-0.461050,-0.149481,0.074472,0.227426,9.251839,0.668978,-0.348938,-0.008258,9.833206,5.533406,829,837,859,895,871,normal
25607,0,1.423921,-0.392178,-0.144097,0.063758,0.231473,9.311867,1.033874,-0.641006,0.199388,9.855821,5.797628,829,837,859,895,871,normal
25634,0,1.422962,-0.304197,-0.131812,0.049806,0.232960,9.378103,1.256030,-0.980431,0.455020,9.977563,5.871543,829,837,859,895,871,normal
25661,0,1.406272,-0.227546,-0.117069,0.037489,0.231665,9.436758,1.084096,-0.921850,0.546025,9.967356,1.494599,829,837,859,895,871,normal
25688,0,1.422583,-0.228867,-0.097373,0.037896,0.235527,9.484041,0.999667,-0.719128,0.729493,9.913361,2.635737,829,837,859,895,871,normal
25715,0,1.386151,-0.237391,-0.075834,0.039459,0.230384,9.520849,0.876807,-0.511677,0.797739,9.853991,1.970549,830,837,859,895,871,normal
25742,0,1.373117,-0.255213,-0.046224,0.042542,0.228868,9.547991,0.753732,-0.431222,1.096660,9.794885,3.814717,829,837,859,895,871,normal
25769,0,1.331502,-0.284091,-0.016016,0.047472,0.222475,9.571461,0.888278,-0.394750,1.118815,9.784513,2.479651,829,837,859,895,871,normal
25796,0,1.349526,-0.317000,0.018612,0.053105,0.226059,9.595695,0.873431,-0.402550,1.282503,9.817765,2.892182,829,836,859,895,871,normal
25823,0,1.359800,-0.326473,0.052745,0.054824,0.228327,9.618705,1.106944,-0.609570,1.264198,9.829187,4.197400,829,836,859,895,871,normal
25850,0,1.362879,-0.313520,0.091580,0.052779,0.229411,9.642525,1.138981,-0.799013,1.438349,9.859875,4.164311,829,837,859,894,870,normal
25877,0,1.413524,-0.281973,0.131062,0.047586,0.238527,9.666358,1.217814,-0.988262,1.462272,9.886055,3.711196,829,837,859,895,871,normal
25904,0,1.426274,-0.223980,0.165218,0.037885,0.241224,9.688287,1.384077,-0.811710,1.265052,9.889334,3.026724,829,837,859,895,871,normal
25931,0,1.440732,-0.221485,0.197113,0.037534,0.244130,9.706586,1.046213,-0.730939,1.181305,9.875039,2.039882,829,837,859,895,871,normal
25958,0,1.465556,-0.206634,0.216469,0.035063,0.248662,9.719224,0.998385,-0.675433,0.716870,9.837238,3.513713,829,836,859,894,871,normal
25985,0,1.418352,-0.203107,0.234115,0.034516,0.241008,9.733711,0.895965,-0.472352,0.653566,9.865643,1.358210,829,837,859,895,871,normal
26012,0,1.416536,-0.183023,0.251995,0.031150,0.241063,9.748425,0.910038,-0.417704,0.662217,9.883809,1.275904,829,837,859,895,871,normal
26039,0,1.378661,-0.162224,0.268777,0.027641,0.234887,9.759753,0.814890,-0.312272,0.621565,9.863334,0.687308,829,837,859,895,871,normal
26066,0,1.360247,-0.189890,0.279847,0.032385,0.231963,9.768750,0.607382,-0.195507,0.409979,9.852164,2.133697,829,837,859,895,871,normal
26093,0,1.337413,-0.192407,0.280628,0.032823,0.228134,9.771581,0.631563,-0.065419,0.028927,9.799040,3.675145,829,837,859,895,871,normal
26120,0,1.325063,-0.204457,0.290416,0.034894,0.226124,9.775804,0.597075,0.218848,0.362542,9.816168,4.372534,829,837,859,895,871,normal
26147,0,1.347371,-0.236284,0.298651,0.040349,0.230062,9.781281,0.622286,0.245001,0.304983,9.834568,0.998633,829,837,859,895,871,normal
26174,0,1.329733,-0.231292,0.302196,0.039512,0.227141,9.785253,0.665289,0.163851,0.131305,9.823106,1.865027,830,837,859,895,871,normal
26201,0,1.329017,-0.236561,0.311941,0.040435,0.227146,9.790743,0.655554,0.079878,0.360932,9.842896,2.583117,829,837,859,895,871,normal
26228,0,1.337811,-0.241233,0.319335,0.041265,0.228827,9.798318,0.754605,-0.198822,0.273847,9.869627,3.209060,829,837,859,895,871,normal
26255,0,1.315888,-0.172824,0.322504,0.029563,0.225072,9.798192,1.000000,-0.263715,0.117345,9.799217,3.560994,829,837,859,895,871,normal
26282,0,1.328568,-0.175484,0.315456,0.030044,0.227438,9.806698,0.900544,-0.351806,-0.261007,9.886440,3.840705,829,836,859,894,870,normal
26309,0,1.326318,-0.126202,0.311450,0.021618,0.227174,9.811958,0.923533,-0.295150,-0.148398,9.862020,1.439571,829,837,859,894,870,normal
26336,0,1.285152,-0.129392,0.305834,0.022175,0.220233,9.816933,0.877036,-0.278535,-0.207988,9.863002,0.883685,829,836,859,894,870,normal
26363,0,1.298681,-0.136478,0.301850,0.023395,0.222605,9.819255,0.969564,-0.390144,-0.147557,9.843237,2.313090,829,836,859,894,871,normal
26390,0,1.285787,-0.116326,0.295242,0.019944,0.220430,9.820866,0.826276,-0.315592,-0.244731,9.837422,1.262448,830,837,859,895,871,normal
26417,0,1.283643,-0.103755,0.295428,0.017796,0.220148,9.824709,0.633255,-0.265683,0.006875,9.861710,2.532051,829,837,859,895,871,normal
26444,0,1.240405,-0.116225,0.297340,0.019933,0.212712,9.823858,0.722035,-0.147327,0.070821,9.817371,1.890467,830,837,859,895,871,normal
26471,0,1.217609,-0.112162,0.299372,0.019222,0.208653,9.816869,0.747251,-0.207995,0.075246,9.755486,1.237255,829,836,859,895,871,normal
26498,0,1.226825,-0.132159,0.298389,0.022653,0.210267,9.818479,0.768382,-0.314158,-0.036395,9.835686,1.901270,829,837,859,895,871,normal
26525,0,1.246200,-0.077518,0.301823,0.013290,0.213636,9.820646,1.088962,-0.611267,0.127189,9.843433,5.398637,829,836,859,895,871,normal
26552,0,1.226467,-0.028343,0.306068,0.004864,0.210442,9.829540,1.150922,-0.723978,0.157228,9.911508,2.474663,829,837,859,895,871,normal
26579,0,1.246401,-0.016227,0.318215,0.002787,0.214033,9.837306,1.034811,-0.572293,0.449888,9.910269,3.184140,829,836,859,894,871,normal
26606,0,1.230211,-0.008130,0.329627,0.001396,0.211278,9.838548,1.144374,-0.440463,0.422657,9.851502,2.264247,829,837,859,895,871,normal
26633,0,1.218638,-0.013391,0.337086,0.002300,0.209278,9.837990,0.919543,-0.237442,0.276274,9.834836,2.197731,830,837,859,895,871,normal
26660,0,1.258919,-0.071134,0.340229,0.012211,0.216098,9.833418,0.854694,-0.179723,0.116405,9.796723,1.392015,829,837,859,895,871,normal
26687,0,1.228813,-0.074348,0.339150,0.012752,0.210742,9.824754,1.061956,-0.110588,-0.039978,9.748148,3.305442,829,837,859,895,871,normal
26714,0,1.175956,-0.068830,0.342328,0.011801,0.201613,9.821745,1.195367,-0.231179,0.117715,9.795391,3.136322,829,837,859,895,871,normal
26741,0,1.155668,-0.042885,0.345542,0.007355,0.198185,9.824304,1.188874,-0.530336,0.119014,9.848812,3.417761,830,837,859,895,871,normal
26768,0,1.138119,-0.012559,0.349293,0.002156,0.195340,9.832593,1.361155,-0.630828,0.138933,9.908749,3.306988,829,837,859,895,871,normal
26795,0,1.054113,0.035602,0.352937,-0.006115,0.181046,9.839575,1.372458,-0.519707,0.134985,9.902872,1.553666,829,837,859,895,871,normal
26822,0,1.075105,0.041290,0.355727,-0.007094,0.184703,9.842267,1.265444,-0.404074,0.103307,9.868904,0.727828,829,837,859,895,871,normal
26849,0,1.098460,0.064536,0.357830,-0.011088,0.188713,9.842055,1.275381,-0.217192,0.077921,9.842834,2.007703,829,837,859,895,871,normal
26876,0,1.096247,0.074340,0.362060,-0.012767,0.188251,9.837794,1.112449,-0.113060,0.156637,9.801220,1.246119,829,837,859,894,870,normal
26903,0,1.108334,0.044124,0.373517,-0.007574,0.190229,9.832763,1.011123,-0.000592,0.424356,9.789768,3.010616,830,837,859,895,871,normal
26930,0,1.099420,0.015503,0.374268,-0.002661,0.188658,9.830628,1.046492,-0.064995,0.027803,9.813062,3.849435,829,837,859,895,871,normal
26957,0,1.080390,0.056726,0.376520,-0.009731,0.185329,9.827271,0.883011,-0.332333,0.083406,9.798564,2.861060,829,837,859,895,871,normal
26984,0,1.082056,0.092391,0.374892,-0.015856,0.185684,9.830955,1.037441,-0.410437,-0.060302,9.866160,2.993973,829,836,859,894,871,normal
27011,0,1.033992,0.113228,0.376437,-0.019452,0.177624,9.841451,1.057678,-0.410419,0.057236,9.936616,1.717218,829,837,859,895,871,normal
27038,0,1.015773,0.109804,0.375228,-0.018858,0.174440,9.838448,0.711829,-0.257277,-0.044792,9.812514,2.819220,829,837,859,895,871,normal
27065,0,1.032727,0.108104,0.376855,-0.018563,0.177321,9.836703,0.625565,-0.238199,0.060257,9.823116,1.019120,829,837,859,895,871,normal
27092,0,1.025456,0.134436,0.377448,-0.023085,0.176083,9.837288,0.727615,-0.116342,0.021989,9.844137,1.942836,829,837,859,895,871,normal
27119,0,1.015152,0.131697,0.373400,-0.022607,0.174250,9.833743,0.666334,0.129268,-0.149952,9.803132,2.892897,830,837,859,895,871,normal
27146,0,0.979034,0.083159,0.368379,-0.014275,0.168052,9.833905,0.586182,-0.013747,-0.185949,9.836193,1.403771,829,837,859,895,871,normal
27173,0,1.006736,0.120400,0.354131,-0.020663,0.172769,9.831656,0.468733,0.080978,-0.527721,9.814094,3.768817,830,837,859,895,871,normal
27200,0,1.011925,0.148317,0.340563,-0.025455,0.173662,9.831788,0.344278,0.184980,-0.502504,9.834888,1.390846,829,837,859,895,871,normal
27227,0,0.984396,0.106468,0.328283,-0.018275,0.168959,9.833103,0.221332,0.494207,-0.454808,9.845865,3.394787,829,837,859,895,871,normal
27254,0,0.975558,0.075832,0.321170,-0.013010,0.167360,9.828301,0.299742,0.474074,-0.263444,9.786342,1.795789,829,837,859,895,871,normal
27281,0,0.961755,0.053804,0.310439,-0.009229,0.164963,9.826613,0.292187,0.349704,-0.397467,9.812502,1.792860,830,837,859,895,871,normal
27308,0,0.975374,0.050700,0.299150,-0.008700,0.167355,9.829883,0.129137,0.292458,-0.418088,9.861118,1.484964,830,837,859,895,871,normal
27335,0,0.969538,0.042330,0.295672,-0.007265,0.166395,9.832346,0.237079,0.378438,-0.128833,9.855784,2.985167,830,837,859,895,871,normal
27362,0,0.929086,0.080798,0.286735,-0.013876,0.159546,9.838155,0.160790,0.316756,-0.331005,9.891191,2.226691,829,837,859,895,871,normal
27389,0,0.939315,0.062469,0.282377,-0.010726,0.161282,9.836918,-0.020370,0.440931,-0.161397,9.827396,2.649065,830,837,859,894,870,normal
27416,0,0.954728,0.047325,0.278344,-0.008132,0.164042,9.843706,-0.041227,0.643313,-0.149374,9.906612,2.475702,829,837,859,895,871,normal
27443,0,0.968484,0.040731,0.278737,-0.006994,0.166287,9.836646,-0.108436,0.814519,0.014571,9.774894,2.876967,829,837,859,895,871,normal
27470,0,0.612361,0.004090,0.276575,-0.000702,0.105098,9.833166,-0.070486,0.912354,-0.080066,9.812128,2.038656,829,837,859,895,871,normal
27497,0,0.648922,-0.001002,0.276164,0.000172,0.111322,9.828598,-0.016018,0.889469,-0.015239,9.788913,1.007413,829,836,859,895,871,normal
27524,0,0.706865,-0.023736,0.274501,0.004071,0.121233,9.826162,0.023627,0.845434,-0.061582,9.806576,0.758665,829,837,859,895,871,normal
27551,0,0.726961,-0.019074,0.274877,0.003271,0.124646,9.823491,0.148371,0.737053,0.013896,9.800683,1.467294,830,837,859,895,871,normal
27578,0,0.731916,-0.031612,0.278267,0.005423,0.125563,9.828749,0.224702,0.809823,0.125577,9.877006,2.062803,830,837,859,895,871,กำหมัด
27605,0,0.767225,-0.033127,0.290278,0.005685,0.131655,9.831326,0.177776,0.736253,0.444840,9.856287,3.328029,829,837,859,895,871,กำหมัด
27632,0,0.800323,-0.041461,0.302242,0.007117,0.137378,9.834364,0.110542,0.779415,0.443114,9.863532,1.338412,830,837,859,895,871,กำหมัด
27659,0,0.841513,-0.057342,0.313573,0.009843,0.144444,9.833985,0.031282,0.919824,0.419685,9.832838,2.297061,830,837,859,895,871,กำหมัด
27686,0,0.855916,-0.102280,0.326276,0.017564,0.146972,9.837715,0.119322,0.932129,0.470474,9.873122,1.667082,829,837,859,895,871,กำหมัด
27713,0,0.927024,-0.109362,0.335783,0.018766,0.159065,9.830297,0.032934,0.863516,0.352122,9.767256,1.059870,830,837,859,895,871,กำหมัด
27740,0,0.936230,-0.128253,0.345874,0.022003,0.160610,9.828170,-0.047941,0.704889,0.373730,9.810715,1.202958,829,836,859,895,871,กำหมัด
27767,0,0.963801,-0.136849,0.354760,0.023479,0.165353,9.828889,-0.066041,0.569938,0.329115,9.837634,0.687895,829,837,859,895,871,กำหมัด
27794,0,0.954915,-0.154320,0.363912,0.026484,0.163875,9.831691,0.047357,0.404732,0.338961,9.858209,1.579338,830,837,859,895,870,กำหมัด
27821,0,0.973704,-0.177059,0.368578,0.030386,0.167094,9.831340,0.033790,0.423233,0.172823,9.830356,1.450656,829,837,859,895,871,กำหมัด
27848,0,0.949089,-0.168286,0.372287,0.028869,0.162808,9.827672,0.252830,0.375822,0.137361,9.795463,2.232185,829,837,859,895,871,กำหมัด
27875,0,1.291038,-0.175695,0.379437,0.030138,0.221442,9.825808,0.445278,0.208153,0.264820,9.837682,2.902857,829,836,859,895,871,กำหมัด
27902,0,1.257615,-0.203212,0.383061,0.034872,0.215792,9.829637,0.324732,0.222875,0.134221,9.865780,1.337242,829,836,859,894,871,กำหมัด
27929,0,1.239258,-0.194570,0.387562,0.033385,0.212622,9.828773,0.428740,0.237687,0.166682,9.822746,1.486902,830,837,859,895,871,กำหมัด
27956,0,1.200291,-0.206309,0.395846,0.035400,0.205939,9.828954,0.481722,0.146331,0.306834,9.831803,1.958293,830,837,859,895,871,กำหมัด
27983,0,1.199403,-0.229563,0.403571,0.039367,0.205670,9.823369,0.571593,0.054735,0.286096,9.775516,1.583610,830,837,859,895,871,กำหมัด
28010,0,1.200638,-0.223832,0.409146,0.038389,0.205906,9.824569,0.871228,-0.052701,0.206494,9.837609,3.745642,829,837,859,895,871,กำหมัด
28037,0,1.179506,-0.213109,0.412745,0.036551,0.202289,9.824930,1.028399,-0.146268,0.133290,9.829668,2.687197,830,837,859,895,871,กำหมัด
28064,0,1.149128,-0.200634,0.417138,0.034418,0.197117,9.826931,1.208915,-0.388291,0.162719,9.846105,3.846924,829,837,859,895,871,กำหมัด
28091,0,1.110395,-0.136353,0.420644,0.023400,0.190547,9.830887,1.174505,-0.438925,0.129830,9.867658,1.255336,830,837,859,895,871,กำหมัด
28118,0,1.103339,-0.125949,0.420777,0.021624,0.189423,9.835405,1.235723,-0.467307,0.004917,9.877697,2.228777,830,836,859,895,871,กำหมัด
28145,0,0.723902,-0.088779,0.419688,0.015238,0.124245,9.833246,1.414257,-0.313164,-0.040317,9.824794,3.237399,830,837,859,895,871,กำหมัด
28172,0,0.760018,-0.101304,0.424841,0.017391,0.130469,9.835134,1.164000,-0.174435,0.190848,9.853959,2.738083,829,837,859,895,871,กำหมัด
28199,0,0.727489,-0.121025,0.434514,0.020765,0.124818,9.829889,1.141894,-0.248017,0.358271,9.783104,2.279518,829,837,859,895,871,กำหมัด
28226,0,0.777642,-0.135978,0.447286,0.023323,0.133379,9.826606,0.959498,-0.497052,0.473014,9.799426,3.198601,830,837,859,895,871,กำหมัด
28253,0,0.780427,-0.142374,0.457909,0.024429,0.133902,9.829875,1.190654,-0.568060,0.393470,9.860342,3.501565,830,837,859,895,871,กำหมัด
28280,0,0.781520,-0.089534,0.469089,0.015367,0.134132,9.833058,1.365883,-0.644466,0.414069,9.862865,3.285542,830,837,859,895,871,กำหมัด
28307,0,0.765415,-0.040593,0.488237,0.006972,0.131467,9.840472,1.281401,-0.677295,0.709170,9.908014,3.541398,830,837,859,894,871,กำหมัด
28334,0,0.770760,0.006179,0.508944,-0.001062,0.132420,9.843074,1.183492,-0.561528,0.766948,9.867772,1.406556,830,837,859,895,871,กำหมัด
28361,0,0.786444,0.030130,0.533250,-0.005180,0.135193,9.848767,1.126624,-0.404212,0.900198,9.901397,2.410204,830,837,859,895,871,กำหมัด
28388,0,0.782926,0.002943,0.538391,-0.000506,0.134576,9.847906,1.089505,-0.559504,0.190436,9.841087,6.542863,829,837,859,895,871,กำหมัด
28415,1,0.872193,-0.071717,0.521181,0.012320,0.149824,9.841385,0.470161,-1.222703,-0.637412,9.787735,11.965966,830,836,859,894,871,กำหมัด
28442,1,0.966954,-0.016276,0.476893,0.002793,0.165940,9.831685,0.645563,-2.069583,-1.640288,9.749697,14.582160,829,836,859,895,871,กำหมัด
28469,1,0.974371,0.029486,0.420217,-0.005062,0.167277,9.835405,0.598738,-2.559900,-2.099126,9.870805,9.351312,829,837,859,895,871,กำหมัด
28496,1,0.891505,0.070618,0.344291,-0.012132,0.153156,9.842345,0.492533,-3.379309,-2.812081,9.905124,14.178559,829,837,859,895,871,กำหมัด
28523,1,0.908889,0.108973,0.225980,-0.018735,0.156250,9.849070,0.418824,-4.935528,-4.381865,9.911606,26.485043,829,836,859,895,871,กำหมัด
28550,1,0.982230,0.143746,0.112260,-0.024677,0.168612,9.834531,0.921235,-6.198625,-4.211858,9.708030,18.584929,829,836,858,893,871,กำหมัด
28577,1,0.738190,0.205418,-0.003024,-0.035292,0.126823,9.842994,0.740593,-6.169787,-4.269790,9.923160,7.659631,828,836,857,892,870,กำหมัด
28604,1,0.905995,0.229143,-0.128744,-0.039339,0.155536,9.835287,0.323327,-6.970396,-4.656303,9.774994,16.700642,828,836,857,891,870,กำหมัด
28631,1,0.838297,0.360256,-0.264700,-0.061897,0.144026,9.842957,0.530601,-7.723756,-5.035415,9.915605,16.954824,828,836,857,891,869,กำหมัด
28658,1,0.867831,0.502478,-0.403878,-0.086268,0.148990,9.835493,-0.035978,-8.034593,-5.154740,9.775024,13.509309,828,836,857,891,869,กำหมัด
28685,1,0.895262,0.686035,-0.526676,-0.117780,0.153698,9.835002,0.438476,-7.873721,-4.548071,9.840721,8.018359,828,835,857,891,869,กำหมัด
28712,1,0.838380,0.808753,-0.633677,-0.138958,0.144048,9.842700,0.902985,-7.224248,-3.963006,9.917624,5.425952,828,835,857,891,869,กำหมัด
28739,1,0.860268,0.919662,-0.744518,-0.158018,0.147813,9.842685,0.483542,-7.089724,-4.105197,9.849740,8.625172,828,835,856,891,869,กำหมัด
28766,1,0.931209,0.962013,-0.869234,-0.165355,0.160061,9.846023,-0.147081,-8.131151,-4.619107,9.882476,20.633728,828,833,856,891,868,กำหมัด
28793,1,0.819975,1.176806,-0.994836,-0.201887,0.140676,9.826999,-0.395891,-8.660624,-4.651939,9.670425,14.549066,828,830,855,890,867,กำหมัด
28820,1,0.975593,1.205800,-1.171060,-0.206753,0.167285,9.821370,-0.874509,-10.480899,-6.526799,9.782392,36.001114,827,828,854,889,866,กำหมัด
28847,1,0.995218,1.330106,-1.424610,-0.227413,0.170163,9.792840,-1.567764,-14.703522,-9.390737,9.547048,63.840828,826,822,852,887,864,กำหมัด
28874,1,1.123798,1.550927,-1.719909,-0.265162,0.192147,9.791585,-3.001069,-17.714819,-10.937030,9.806743,53.656872,825,813,847,883,861,กำหมัด
28901,1,1.164066,1.862592,-2.049156,-0.318769,0.199243,9.800273,-2.403543,-21.087486,-12.194319,9.914395,56.637356,823,807,843,880,858,กำหมัด
28928,1,1.120160,2.264994,-2.412962,-0.385212,0.190545,9.737460,-3.692333,-24.821325,-13.474317,9.225377,65.361504,821,798,836,876,854,กำหมัด
28955,1,1.099709,2.711907,-2.795301,-0.462249,0.187506,9.757067,-4.263180,-27.445841,-14.160689,10.001803,55.765572,816,783,827,870,847,กำหมัด
28982,1,0.989506,2.853608,-3.187273,-0.488486,0.169447,9.798416,-4.236319,-30.307905,-14.517488,10.196348,58.938232,808,769,816,866,838,กำหมัด
29009,1,0.903513,3.341770,-3.604284,-0.573392,0.155109,9.818631,-5.266830,-32.816578,-15.444856,10.089656,62.016434,800,755,800,860,825,กำหมัด
29036,1,0.909073,3.976953,-4.009996,-0.685483,0.156811,9.858613,-4.934916,-33.461884,-15.026361,10.359393,40.898445,795,740,786,856,816,กำหมัด
29063,1,0.899431,4.494213,-4.384487,-0.777267,0.155708,9.887653,-4.601818,-34.931721,-13.870029,10.275915,48.311230,790,725,774,853,808,กำหมัด
29090,1,0.825368,4.847926,-4.770324,-0.841675,0.143463,9.922648,-5.234843,-37.534260,-14.290269,10.335856,64.512741,787,708,761,848,798,กำหมัด
29117,1,0.931515,5.482351,-5.180885,-0.952796,0.162131,9.925892,-6.217065,-40.089046,-15.205983,10.150190,68.962685,784,693,749,844,791,กำหมัด
29144,1,1.041774,6.211990,-5.604671,-1.083452,0.182045,9.952275,-6.376065,-41.669601,-15.695752,10.443447,59.910912,781,677,738,841,782,กำหมัด
29171,1,1.000311,6.657068,-6.053984,-1.167282,0.175786,9.999722,-7.000414,-43.471790,-16.641232,10.603047,65.991508,776,658,726,837,774,กำหมัด
29198,1,1.319795,7.326725,-6.557955,-1.289418,0.232882,10.025665,-8.467016,-46.156261,-18.665600,10.559996,82.306389,772,642,715,833,768,กำหมัด
29225,1,1.441689,8.092912,-7.076440,-1.431185,0.255777,10.061704,-6.532271,-47.069160,-19.203157,10.742982,61.260273,767,633,709,832,764,กำหมัด
29252,1,1.281811,8.729866,-7.584321,-1.555183,0.229215,10.125264,-4.964437,-46.781395,-18.810396,11.025772,47.643276,765,623,703,831,760,กำหมัด
29279,1,1.131484,9.415853,-8.127882,-1.689049,0.203873,10.183187,-5.475263,-46.669281,-20.131910,11.088779,56.674099,763,617,697,830,757,กำหมัด
29306,1,1.189129,10.189762,-8.665672,-1.839456,0.215782,10.231485,-5.827192,-44.855877,-19.918148,11.138574,34.913570,760,613,694,829,754,กำหมัด
29333,1,1.034716,10.696456,-9.152368,-1.946571,0.189389,10.303687,-4.389242,-42.133190,-18.025763,11.333712,19.619183,756,610,689,828,751,กำหมัด
29360,1,0.931239,11.180606,-9.596622,-2.050396,0.171860,10.372259,-3.521649,-38.429642,-16.453867,11.387560,7.048692,750,606,685,827,750,กำหมัด
29387,1,0.739213,11.624836,-10.005422,-2.142402,0.137169,10.413144,-2.729877,-34.740204,-15.140722,11.184210,5.720214,747,606,685,827,749,กำหมัด
29414,1,0.713506,12.031013,-10.391973,-2.218264,0.132524,10.407561,-2.275096,-31.975958,-14.316705,10.756311,10.064816,745,605,683,827,748,กำหมัด
29441,1,0.621428,12.268682,-10.755505,-2.265949,0.115653,10.419297,-1.154855,-30.374075,-13.464150,10.864571,19.179792,739,601,679,826,745,กำหมัด
29468,1,0.542223,12.726556,-11.100766,-2.355553,0.101188,10.429380,-0.270076,-28.587067,-12.787477,10.985091,16.136503,736,599,678,825,744,กำหมัด
29495,1,0.458709,13.094440,-11.407310,-2.427339,0.085775,10.435103,0.212163,-26.027197,-11.353471,10.927839,5.662547,732,598,677,825,744,กำหมัด
29522,1,0.452995,13.270083,-11.692211,-2.462975,0.084833,10.443128,0.024303,-24.192064,-10.551929,10.877833,8.534555,727,596,676,824,744,กำหมัด
29549,1,0.505993,13.574006,-11.957889,-2.524737,0.094999,10.456334,1.206792,-23.038883,-9.839915,11.016337,17.676605,724,595,675,824,744,กำหมัด
29576,1,0.465360,13.927629,-12.212719,-2.596843,0.087627,10.471334,2.119469,-22.701019,-9.438166,11.091881,22.961023,723,596,676,824,744,กำหมัด
29603,1,0.366792,14.295845,-12.456901,-2.671555,0.069261,10.483875,2.462753,-21.906319,-9.043778,11.112264,16.694191,721,596,676,824,744,กำหมัด
29630,1,0.276974,14.504679,-12.679476,-2.719641,0.052491,10.512402,2.242021,-20.281712,-8.243518,11.221487,5.760878,719,596,675,824,744,กำหมัด
29657,1,0.205218,14.585760,-12.898382,-2.747356,0.039075,10.557948,1.693363,-18.038315,-8.107658,11.370201,7.909584,719,597,676,824,745,กำหมัด
29684,1,0.151628,15.043430,-13.075428,-2.835988,0.028916,10.552011,2.443321,-15.314571,-6.557260,11.109803,14.961273,721,600,678,825,746,กำหมัด
29711,1,0.151377,15.003123,-13.236821,-2.828844,0.028871,10.555048,1.910470,-13.356951,-5.977526,10.937567,5.202234,719,601,677,825,746,กำหมัด
29738,1,0.046909,15.155283,-13.384633,-2.860483,0.008958,10.560894,2.482466,-11.357593,-5.474515,11.071048,10.157065,717,600,677,825,746,กำหมัด
29765,1,-0.093310,15.541764,-13.523766,-2.932296,-0.017823,10.543650,2.581639,-9.762858,-5.153056,10.990597,6.184094,718,603,679,825,748,กำหมัด
29792,1,-0.022735,15.588396,-13.625640,-2.935872,-0.004335,10.523340,1.434956,-7.396348,-3.773118,10.758730,18.627348,720,604,679,826,748,กำหมัด
29819,1,-0.151318,15.558304,-13.710898,-2.927838,-0.028829,10.515837,1.763879,-6.432113,-3.157736,10.834353,5.747191,719,605,680,826,748,กำหมัด
29846,1,-0.219379,15.652181,-13.784284,-2.943592,-0.041775,10.505731,1.086472,-6.184614,-2.717954,10.863348,6.503738,720,606,680,826,748,กำหมัด
29873,1,-0.224329,15.836725,-13.830740,-2.972855,-0.042652,10.480115,1.403369,-4.672802,-1.720588,10.748466,12.270347,722,608,681,826,749,กำหมัด
29900,1,-0.253660,15.722457,-13.860300,-2.952024,-0.048230,10.486271,1.721388,-3.780922,-1.094834,10.898598,7.721496,721,608,681,826,749,กำหมัด
29927,1,-0.224455,15.755977,-13.885497,-2.960811,-0.042715,10.493967,1.860731,-3.668854,-0.933218,10.991941,4.129258,720,608,682,827,750,กำหมัด
29954,1,-0.199435,15.860181,-13.900903,-2.982845,-0.037991,10.498978,1.522076,-3.564869,-0.570576,11.013503,4.061169,721,609,682,826,750,กำหมัด
29981,1,-0.126741,15.852221,-13.893237,-2.983761,-0.024163,10.507796,1.723537,-2.665032,0.283927,11.002288,10.277304,721,610,683,827,751,กำหมัด
30008,1,-0.218142,15.789876,-13.867085,-2.976445,-0.041646,10.525550,1.876727,-1.942679,0.968605,11.076444,9.067784,721,611,683,827,751,กำหมัด
30035,1,-0.241453,15.766542,-13.845472,-2.974170,-0.046127,10.533867,1.078661,-1.578498,0.800439,11.012571,6.376011,722,612,683,827,751,กำหมัด
32595,0,0.875914,14.424582,-10.961461,-2.688843,0.165008,10.452431,1.202568,-0.617453,-0.210821,10.798282,6.090137,737,641,703,835,767,กำหมัด
32622,0,0.883035,14.459529,-10.971800,-2.696653,0.166438,10.456327,1.204730,-1.068608,-0.382919,10.851617,5.615792,737,641,703,835,767,กำหมัด
32649,0,0.844288,14.445817,-10.962907,-2.697696,0.159344,10.470848,1.556676,-0.909022,0.329381,10.942122,8.247702,737,641,703,835,767,กำหมัด
32676,0,0.817209,14.445817,-10.949023,-2.700550,0.154397,10.482001,1.410927,-0.518520,0.514201,10.928462,3.705091,737,641,703,835,767,กำหมัด
32703,0,0.784510,14.424902,-10.926008,-2.697612,0.148269,10.486532,1.148503,-0.154568,0.852413,10.861315,5.137523,737,641,703,835,768,กำหมัด
32730,0,0.803768,14.442130,-10.901229,-2.699756,0.151851,10.481751,0.812321,0.221427,0.917742,10.788611,4.490503,737,642,703,835,768,กำหมัด
32757,0,0.823623,14.387828,-10.868830,-2.688997,0.155554,10.481040,0.814445,0.411384,1.199976,10.792268,4.379686,737,642,703,835,768,กำหมัด
32784,0,0.810872,14.343269,-10.840372,-2.680749,0.153141,10.482794,0.319482,0.524533,1.053986,10.818109,4.421289,737,642,703,835,768,กำหมัด
